ExperimentName;Subject;Session;Clock.Information;DataFile.Basename;Display.RefreshRate;ExperimentVersion;Group;Name;RandomSeed;RuntimeVersion;RuntimeVersionExpected;SessionDate;SessionStartDateTimeUtc;SessionTime;StudioVersion;SyncEprimeKinB1.ACC;SyncEprimeKinB1.CRESP;SyncEprimeKinB1.DurationError;SyncEprimeKinB1.OnsetDelay;SyncEprimeKinB1.OnsetTime;SyncEprimeKinB1.OnsetToOnsetTime;SyncEprimeKinB1.RESP;SyncEprimeKinB1.RT;SyncEprimeKinB1.RTTime;Block;BlockINT_0Fischi_1Suoni;BlockList;BlockList.Cycle;BlockList.Sample;ContatoreSuoni;NumSuono;Procedure[Block];Running[Block];Suonilist;SuonoFinSoglia;SyncEprimeKinFischi1.ACC;SyncEprimeKinFischi1.CRESP;SyncEprimeKinFischi1.DurationError;SyncEprimeKinFischi1.OnsetDelay;SyncEprimeKinFischi1.OnsetTime;SyncEprimeKinFischi1.OnsetToOnsetTime;SyncEprimeKinFischi1.RESP;SyncEprimeKinFischi1.RT;SyncEprimeKinFischi1.RTTime;Trial;ListBlockFischi;ListBlockFischi.Cycle;ListBlockFischi.Sample;Procedure[Trial];Running[Trial];SubTrial;AccSogg1;Avatar_Giu1_Su2;CatchTrial_CORR;ContatoreFinestraSoglia;CorrectResponse;File_Name;FinestraSoglia;IdcondEEG;Istruzione;KeySoggetto1;KeySoggetto2;ListFischi1;ListFischi1.Cycle;ListFischi1.Sample;NumeroSuono;OP_UG;Procedure[SubTrial];Resoconto.RT;RTChange;RTimage;RTNetto;RTSubj;RTTouch;Running[SubTrial];StartGo.ACC;StartGo.CRESP;StartGo.DurationError;StartGo.OnsetDelay;StartGo.OnsetTime;StartGo.OnsetToOnsetTime;StartGo.RESP;StartGo.RT;StartGo.RTTime;StartSoggetto1;StartSoggetto2;StopSoggetto1;StopSoggetto2;StopTrial.RT;tempo;TMSoggetto1;ValiditaTrial;Vincitore
TMS_Ibrahim;37;1;"<?xml version=""1.0""?>\n<Clock xmlns:dt=""urn:schemas-microsoft-com:datatypes""><Description dt:dt=""string"">E-Prime Primary Realtime Clock</Description><StartTime><Timestamp dt:dt=""int"">0</Timestamp><DateUtc dt:dt=""string"">2022-09-05T09:41:55Z</DateUtc></StartTime><FrequencyChanges><FrequencyChange><Frequency dt:dt=""r8"">3312890</Frequency><Timestamp dt:dt=""r8"">34811947288</Timestamp><Current dt:dt=""r8"">0</Current><DateUtc dt:dt=""string"">2022-09-05T09:41:55Z</DateUtc></FrequencyChange></FrequencyChanges></Clock>\n";TMS_Ibrahim-37-1;75029;100561;1;;452882857;2010242;2010242;09/05/2022;05/09/2022 09:41;11:41:55;2010147;0;;-999999;24;40387;0;1;1966;42353;1;1;1;2;1;1;1;BlockProcFischi;BlockList;1;25;0;;-999999;32;45637;0;1;744;46381;1;1;1;1;ProcFischi1;ListBlockFischi;1;1;2;0;0;3;Pr2_B;250;3;ug;3;2;27;1;1;3;1;TrialProc;2514;735;Pr2_B;236;1505;1268;ListFischi1;0;;5;210;54153;23;13;1529;55682;424;1;1529;1;2505;592;1105;1;1
TMS_Ibrahim;37;1;"<?xml version=""1.0""?>\n<Clock xmlns:dt=""urn:schemas-microsoft-com:datatypes""><Description dt:dt=""string"">E-Prime Primary Realtime Clock</Description><StartTime><Timestamp dt:dt=""int"">0</Timestamp><DateUtc dt:dt=""string"">2022-09-05T09:41:55Z</DateUtc></StartTime><FrequencyChanges><FrequencyChange><Frequency dt:dt=""r8"">3312890</Frequency><Timestamp dt:dt=""r8"">34811947288</Timestamp><Current dt:dt=""r8"">0</Current><DateUtc dt:dt=""string"">2022-09-05T09:41:55Z</DateUtc></FrequencyChange></FrequencyChanges></Clock>\n";TMS_Ibrahim-37-1;75029;100561;1;;452882857;2010242;2010242;09/05/2022;05/09/2022 09:41;11:41:55;2010147;0;;-999999;24;40387;0;1;1966;42353;1;1;1;2;1;1;1;BlockProcFischi;BlockList;1;25;0;;-999999;32;45637;0;1;744;46381;1;1;1;1;ProcFischi1;ListBlockFischi;2;1;1;0;0;3;Po5_B;250;2;op;3;2;41;1;2;2;0;TrialProc;1837;985;Po5_B;79;1556;1478;ListFischi1;0;;2;203;62824;15;13;1577;64401;233;1;1577;1;3261;274;1344;1;1
TMS_Ibrahim;37;1;"<?xml version=""1.0""?>\n<Clock xmlns:dt=""urn:schemas-microsoft-com:datatypes""><Description dt:dt=""string"">E-Prime Primary Realtime Clock</Description><StartTime><Timestamp dt:dt=""int"">0</Timestamp><DateUtc dt:dt=""string"">2022-09-05T09:41:55Z</DateUtc></StartTime><FrequencyChanges><FrequencyChange><Frequency dt:dt=""r8"">3312890</Frequency><Timestamp dt:dt=""r8"">34811947288</Timestamp><Current dt:dt=""r8"">0</Current><DateUtc dt:dt=""string"">2022-09-05T09:41:55Z</DateUtc></FrequencyChange></FrequencyChanges></Clock>\n";TMS_Ibrahim-37-1;75029;100561;1;;452882857;2010242;2010242;09/05/2022;05/09/2022 09:41;11:41:55;2010147;0;;-999999;24;40387;0;1;1966;42353;1;1;1;2;1;1;1;BlockProcFischi;BlockList;1;25;0;;-999999;32;45637;0;1;744;46381;1;1;1;1;ProcFischi1;ListBlockFischi;3;1;2;0;0;5;Pr2_B;250;1;op;5;2;6;1;3;1;0;TrialProc;1173;715;Pr2_B;94;1343;1249;ListFischi1;0;;2;203;71783;12;15;1370;73153;314;1;1370;1;1032;299;1056;1;1
TMS_Ibrahim;37;1;"<?xml version=""1.0""?>\n<Clock xmlns:dt=""urn:schemas-microsoft-com:datatypes""><Description dt:dt=""string"">E-Prime Primary Realtime Clock</Description><StartTime><Timestamp dt:dt=""int"">0</Timestamp><DateUtc dt:dt=""string"">2022-09-05T09:41:55Z</DateUtc></StartTime><FrequencyChanges><FrequencyChange><Frequency dt:dt=""r8"">3312890</Frequency><Timestamp dt:dt=""r8"">34811947288</Timestamp><Current dt:dt=""r8"">0</Current><DateUtc dt:dt=""string"">2022-09-05T09:41:55Z</DateUtc></FrequencyChange></FrequencyChanges></Clock>\n";TMS_Ibrahim-37-1;75029;100561;1;;452882857;2010242;2010242;09/05/2022;05/09/2022 09:41;11:41:55;2010147;0;;-999999;24;40387;0;1;1966;42353;1;1;1;2;1;1;1;BlockProcFischi;BlockList;1;25;0;;-999999;32;45637;0;1;744;46381;1;1;1;1;ProcFischi1;ListBlockFischi;4;1;2;0;0;3;Pr5_B;250;3;ug;3;2;30;1;4;3;1;TrialProc;916;676;Pr5_B;78;1355;1276;ListFischi1;0;;2;203;79819;13;13;1381;81200;278;1;1381;1;1238;288;1103;1;1
TMS_Ibrahim;37;1;"<?xml version=""1.0""?>\n<Clock xmlns:dt=""urn:schemas-microsoft-com:datatypes""><Description dt:dt=""string"">E-Prime Primary Realtime Clock</Description><StartTime><Timestamp dt:dt=""int"">0</Timestamp><DateUtc dt:dt=""string"">2022-09-05T09:41:55Z</DateUtc></StartTime><FrequencyChanges><FrequencyChange><Frequency dt:dt=""r8"">3312890</Frequency><Timestamp dt:dt=""r8"">34811947288</Timestamp><Current dt:dt=""r8"">0</Current><DateUtc dt:dt=""string"">2022-09-05T09:41:55Z</DateUtc></FrequencyChange></FrequencyChanges></Clock>\n";TMS_Ibrahim-37-1;75029;100561;1;;452882857;2010242;2010242;09/05/2022;05/09/2022 09:41;11:41:55;2010147;0;;-999999;24;40387;0;1;1966;42353;1;1;1;2;1;1;1;BlockProcFischi;BlockList;1;25;0;;-999999;32;45637;0;1;744;46381;1;1;1;1;ProcFischi1;ListBlockFischi;5;1;1;0;0;3;Po5_B;225;2;op;3;2;36;1;5;2;0;TrialProc;1491;983;Po5_B;651;2126;1475;ListFischi1;0;;2;203;87883;13;13;2149;90032;133;1;2149;1;1960;594;2016;1;1
TMS_Ibrahim;37;1;"<?xml version=""1.0""?>\n<Clock xmlns:dt=""urn:schemas-microsoft-com:datatypes""><Description dt:dt=""string"">E-Prime Primary Realtime Clock</Description><StartTime><Timestamp dt:dt=""int"">0</Timestamp><DateUtc dt:dt=""string"">2022-09-05T09:41:55Z</DateUtc></StartTime><FrequencyChanges><FrequencyChange><Frequency dt:dt=""r8"">3312890</Frequency><Timestamp dt:dt=""r8"">34811947288</Timestamp><Current dt:dt=""r8"">0</Current><DateUtc dt:dt=""string"">2022-09-05T09:41:55Z</DateUtc></FrequencyChange></FrequencyChanges></Clock>\n";TMS_Ibrahim-37-1;75029;100561;1;;452882857;2010242;2010242;09/05/2022;05/09/2022 09:41;11:41:55;2010147;0;;-999999;24;40387;0;1;1966;42353;1;1;1;2;1;1;1;BlockProcFischi;BlockList;1;25;0;;-999999;32;45637;0;1;744;46381;1;1;1;1;ProcFischi1;ListBlockFischi;6;1;1;0;0;5;Po5_B;250;4;ug;5;2;57;1;6;4;1;TrialProc;2066;980;Po5_B;111;1584;1473;ListFischi1;0;;2;201;95522;11;15;1614;97136;334;1;1614;1;1587;581;1280;1;1
TMS_Ibrahim;37;1;"<?xml version=""1.0""?>\n<Clock xmlns:dt=""urn:schemas-microsoft-com:datatypes""><Description dt:dt=""string"">E-Prime Primary Realtime Clock</Description><StartTime><Timestamp dt:dt=""int"">0</Timestamp><DateUtc dt:dt=""string"">2022-09-05T09:41:55Z</DateUtc></StartTime><FrequencyChanges><FrequencyChange><Frequency dt:dt=""r8"">3312890</Frequency><Timestamp dt:dt=""r8"">34811947288</Timestamp><Current dt:dt=""r8"">0</Current><DateUtc dt:dt=""string"">2022-09-05T09:41:55Z</DateUtc></FrequencyChange></FrequencyChanges></Clock>\n";TMS_Ibrahim-37-1;75029;100561;1;;452882857;2010242;2010242;09/05/2022;05/09/2022 09:41;11:41:55;2010147;0;;-999999;24;40387;0;1;1966;42353;1;1;1;2;1;1;1;BlockProcFischi;BlockList;1;25;0;;-999999;32;45637;0;1;744;46381;1;1;1;1;ProcFischi1;ListBlockFischi;7;1;1;0;0;5;Po8_B;225;4;ug;5;2;58;1;7;4;1;TrialProc;1125;1253;Po8_B;54;1534;1587;ListFischi1;0;;2;203;103979;17;15;1557;105536;118;1;1557;1;1054;332;1439;1;1
TMS_Ibrahim;37;1;"<?xml version=""1.0""?>\n<Clock xmlns:dt=""urn:schemas-microsoft-com:datatypes""><Description dt:dt=""string"">E-Prime Primary Realtime Clock</Description><StartTime><Timestamp dt:dt=""int"">0</Timestamp><DateUtc dt:dt=""string"">2022-09-05T09:41:55Z</DateUtc></StartTime><FrequencyChanges><FrequencyChange><Frequency dt:dt=""r8"">3312890</Frequency><Timestamp dt:dt=""r8"">34811947288</Timestamp><Current dt:dt=""r8"">0</Current><DateUtc dt:dt=""string"">2022-09-05T09:41:55Z</DateUtc></FrequencyChange></FrequencyChanges></Clock>\n";TMS_Ibrahim-37-1;75029;100561;1;;452882857;2010242;2010242;09/05/2022;05/09/2022 09:41;11:41:55;2010147;0;;-999999;24;40387;0;1;1966;42353;1;1;1;2;1;1;1;BlockProcFischi;BlockList;1;25;0;;-999999;32;45637;0;1;744;46381;1;1;1;1;ProcFischi1;ListBlockFischi;8;1;1;0;1;3;Po3_B;225;2;op;3;2;34;1;8;2;0;TrialProc;1090;1316;Po3_B;240;1821;1582;ListFischi1;0;;2;203;112353;13;13;1854;114207;334;1;1854;1;1359;472;1520;1;1
TMS_Ibrahim;37;1;"<?xml version=""1.0""?>\n<Clock xmlns:dt=""urn:schemas-microsoft-com:datatypes""><Description dt:dt=""string"">E-Prime Primary Realtime Clock</Description><StartTime><Timestamp dt:dt=""int"">0</Timestamp><DateUtc dt:dt=""string"">2022-09-05T09:41:55Z</DateUtc></StartTime><FrequencyChanges><FrequencyChange><Frequency dt:dt=""r8"">3312890</Frequency><Timestamp dt:dt=""r8"">34811947288</Timestamp><Current dt:dt=""r8"">0</Current><DateUtc dt:dt=""string"">2022-09-05T09:41:55Z</DateUtc></FrequencyChange></FrequencyChanges></Clock>\n";TMS_Ibrahim-37-1;75029;100561;1;;452882857;2010242;2010242;09/05/2022;05/09/2022 09:41;11:41:55;2010147;0;;-999999;24;40387;0;1;1966;42353;1;1;1;2;1;1;1;BlockProcFischi;BlockList;1;25;0;;-999999;32;45637;0;1;744;46381;1;1;1;1;ProcFischi1;ListBlockFischi;9;1;1;0;0;5;Po4_B;200;4;ug;5;2;51;1;9;4;1;TrialProc;1592;1343;Po4_B;191;1906;1716;ListFischi1;0;;2;201;120230;13;155;2809;123039;125;1;1929;1;1137;204;1804;1;1
TMS_Ibrahim;37;1;"<?xml version=""1.0""?>\n<Clock xmlns:dt=""urn:schemas-microsoft-com:datatypes""><Description dt:dt=""string"">E-Prime Primary Realtime Clock</Description><StartTime><Timestamp dt:dt=""int"">0</Timestamp><DateUtc dt:dt=""string"">2022-09-05T09:41:55Z</DateUtc></StartTime><FrequencyChanges><FrequencyChange><Frequency dt:dt=""r8"">3312890</Frequency><Timestamp dt:dt=""r8"">34811947288</Timestamp><Current dt:dt=""r8"">0</Current><DateUtc dt:dt=""string"">2022-09-05T09:41:55Z</DateUtc></FrequencyChange></FrequencyChanges></Clock>\n";TMS_Ibrahim-37-1;75029;100561;1;;452882857;2010242;2010242;09/05/2022;05/09/2022 09:41;11:41:55;2010147;0;;-999999;24;40387;0;1;1966;42353;1;1;1;2;1;1;1;BlockProcFischi;BlockList;1;25;0;;-999999;32;45637;0;1;744;46381;1;1;1;1;ProcFischi1;ListBlockFischi;10;1;1;0;1;3;Po4_B;225;2;op;3;2;35;1;10;2;0;TrialProc;1712;1338;Po4_B;152;1559;1711;ListFischi1;0;;2;203;128737;9;13;1582;130319;158;1;1582;1;1262;433;1424;1;1
TMS_Ibrahim;37;1;"<?xml version=""1.0""?>\n<Clock xmlns:dt=""urn:schemas-microsoft-com:datatypes""><Description dt:dt=""string"">E-Prime Primary Realtime Clock</Description><StartTime><Timestamp dt:dt=""int"">0</Timestamp><DateUtc dt:dt=""string"">2022-09-05T09:41:55Z</DateUtc></StartTime><FrequencyChanges><FrequencyChange><Frequency dt:dt=""r8"">3312890</Frequency><Timestamp dt:dt=""r8"">34811947288</Timestamp><Current dt:dt=""r8"">0</Current><DateUtc dt:dt=""string"">2022-09-05T09:41:55Z</DateUtc></FrequencyChange></FrequencyChanges></Clock>\n";TMS_Ibrahim-37-1;75029;100561;1;;452882857;2010242;2010242;09/05/2022;05/09/2022 09:41;11:41:55;2010147;0;;-999999;24;40387;0;1;1966;42353;1;1;1;2;1;1;1;BlockProcFischi;BlockList;1;25;0;;-999999;32;45637;0;1;744;46381;1;1;1;1;ProcFischi1;ListBlockFischi;11;1;2;0;0;3;Pr5_B;225;3;ug;3;2;25;1;11;3;1;TrialProc;1805;672;Pr5_B;186;1456;1271;ListFischi1;0;;2;203;137561;8;13;1477;139038;213;1;1477;1;1191;572;1264;1;1
TMS_Ibrahim;37;1;"<?xml version=""1.0""?>\n<Clock xmlns:dt=""urn:schemas-microsoft-com:datatypes""><Description dt:dt=""string"">E-Prime Primary Realtime Clock</Description><StartTime><Timestamp dt:dt=""int"">0</Timestamp><DateUtc dt:dt=""string"">2022-09-05T09:41:55Z</DateUtc></StartTime><FrequencyChanges><FrequencyChange><Frequency dt:dt=""r8"">3312890</Frequency><Timestamp dt:dt=""r8"">34811947288</Timestamp><Current dt:dt=""r8"">0</Current><DateUtc dt:dt=""string"">2022-09-05T09:41:55Z</DateUtc></FrequencyChange></FrequencyChanges></Clock>\n";TMS_Ibrahim-37-1;75029;100561;1;;452882857;2010242;2010242;09/05/2022;05/09/2022 09:41;11:41:55;2010147;0;;-999999;24;40387;0;1;1966;42353;1;1;1;2;1;1;1;BlockProcFischi;BlockList;1;25;0;;-999999;32;45637;0;1;744;46381;1;1;1;1;ProcFischi1;ListBlockFischi;12;1;1;0;0;5;Po3_B;200;4;ug;5;2;50;1;12;4;1;TrialProc;1750;1312;Po3_B;106;1472;1578;ListFischi1;0;;2;203;146156;10;15;1506;147662;226;1;1506;1;1175;590;1280;1;1
TMS_Ibrahim;37;1;"<?xml version=""1.0""?>\n<Clock xmlns:dt=""urn:schemas-microsoft-com:datatypes""><Description dt:dt=""string"">E-Prime Primary Realtime Clock</Description><StartTime><Timestamp dt:dt=""int"">0</Timestamp><DateUtc dt:dt=""string"">2022-09-05T09:41:55Z</DateUtc></StartTime><FrequencyChanges><FrequencyChange><Frequency dt:dt=""r8"">3312890</Frequency><Timestamp dt:dt=""r8"">34811947288</Timestamp><Current dt:dt=""r8"">0</Current><DateUtc dt:dt=""string"">2022-09-05T09:41:55Z</DateUtc></FrequencyChange></FrequencyChanges></Clock>\n";TMS_Ibrahim-37-1;75029;100561;1;;452882857;2010242;2010242;09/05/2022;05/09/2022 09:41;11:41:55;2010147;0;;-999999;24;40387;0;1;1966;42353;1;1;1;2;1;1;1;BlockProcFischi;BlockList;1;25;0;;-999999;32;45637;0;1;744;46381;1;1;1;1;ProcFischi1;ListBlockFischi;13;1;2;0;0;5;Pr5_B;225;1;op;5;2;14;1;13;1;0;TrialProc;2225;671;Pr5_B;43;1314;1271;ListFischi1;0;;2;203;154714;9;15;1348;156062;196;1;1348;1;1541;380;1152;1;1
TMS_Ibrahim;37;1;"<?xml version=""1.0""?>\n<Clock xmlns:dt=""urn:schemas-microsoft-com:datatypes""><Description dt:dt=""string"">E-Prime Primary Realtime Clock</Description><StartTime><Timestamp dt:dt=""int"">0</Timestamp><DateUtc dt:dt=""string"">2022-09-05T09:41:55Z</DateUtc></StartTime><FrequencyChanges><FrequencyChange><Frequency dt:dt=""r8"">3312890</Frequency><Timestamp dt:dt=""r8"">34811947288</Timestamp><Current dt:dt=""r8"">0</Current><DateUtc dt:dt=""string"">2022-09-05T09:41:55Z</DateUtc></FrequencyChange></FrequencyChanges></Clock>\n";TMS_Ibrahim-37-1;75029;100561;1;;452882857;2010242;2010242;09/05/2022;05/09/2022 09:41;11:41:55;2010147;0;;-999999;24;40387;0;1;1966;42353;1;1;1;2;1;1;1;BlockProcFischi;BlockList;1;25;0;;-999999;32;45637;0;1;744;46381;1;1;1;1;ProcFischi1;ListBlockFischi;14;1;2;0;0;3;Pr2_B;200;3;ug;3;2;22;1;14;3;1;TrialProc;853;716;Pr2_B;86;1336;1249;ListFischi1;0;;2;203;163253;13;13;1368;164621;280;1;1368;1;1470;230;1088;1;1
TMS_Ibrahim;37;1;"<?xml version=""1.0""?>\n<Clock xmlns:dt=""urn:schemas-microsoft-com:datatypes""><Description dt:dt=""string"">E-Prime Primary Realtime Clock</Description><StartTime><Timestamp dt:dt=""int"">0</Timestamp><DateUtc dt:dt=""string"">2022-09-05T09:41:55Z</DateUtc></StartTime><FrequencyChanges><FrequencyChange><Frequency dt:dt=""r8"">3312890</Frequency><Timestamp dt:dt=""r8"">34811947288</Timestamp><Current dt:dt=""r8"">0</Current><DateUtc dt:dt=""string"">2022-09-05T09:41:55Z</DateUtc></FrequencyChange></FrequencyChanges></Clock>\n";TMS_Ibrahim-37-1;75029;100561;1;;452882857;2010242;2010242;09/05/2022;05/09/2022 09:41;11:41:55;2010147;0;;-999999;24;40387;0;1;1966;42353;1;1;1;2;1;1;1;BlockProcFischi;BlockList;1;25;0;;-999999;32;45637;0;1;744;46381;1;1;1;1;ProcFischi1;ListBlockFischi;15;1;1;0;0;5;Po5_B;175;4;ug;5;2;62;1;15;4;1;TrialProc;2016;975;Po5_B;1;1470;1468;ListFischi1;0;;2;201;170844;6;15;1505;172349;353;1;1505;1;1260;535;1152;1;1
TMS_Ibrahim;37;1;"<?xml version=""1.0""?>\n<Clock xmlns:dt=""urn:schemas-microsoft-com:datatypes""><Description dt:dt=""string"">E-Prime Primary Realtime Clock</Description><StartTime><Timestamp dt:dt=""int"">0</Timestamp><DateUtc dt:dt=""string"">2022-09-05T09:41:55Z</DateUtc></StartTime><FrequencyChanges><FrequencyChange><Frequency dt:dt=""r8"">3312890</Frequency><Timestamp dt:dt=""r8"">34811947288</Timestamp><Current dt:dt=""r8"">0</Current><DateUtc dt:dt=""string"">2022-09-05T09:41:55Z</DateUtc></FrequencyChange></FrequencyChanges></Clock>\n";TMS_Ibrahim-37-1;75029;100561;1;;452882857;2010242;2010242;09/05/2022;05/09/2022 09:41;11:41:55;2010147;0;;-999999;24;40387;0;1;1966;42353;1;1;1;2;1;1;1;BlockProcFischi;BlockList;1;25;0;;-999999;32;45637;0;1;744;46381;1;1;1;1;ProcFischi1;ListBlockFischi;16;1;1;0;0;3;Po8_B;200;2;op;3;2;37;1;16;2;0;TrialProc;1001;1246;Po8_B;251;1329;1580;ListFischi1;0;;2;203;178356;11;13;1353;179709;265;1;1353;1;976;480;1088;1;1
TMS_Ibrahim;37;1;"<?xml version=""1.0""?>\n<Clock xmlns:dt=""urn:schemas-microsoft-com:datatypes""><Description dt:dt=""string"">E-Prime Primary Realtime Clock</Description><StartTime><Timestamp dt:dt=""int"">0</Timestamp><DateUtc dt:dt=""string"">2022-09-05T09:41:55Z</DateUtc></StartTime><FrequencyChanges><FrequencyChange><Frequency dt:dt=""r8"">3312890</Frequency><Timestamp dt:dt=""r8"">34811947288</Timestamp><Current dt:dt=""r8"">0</Current><DateUtc dt:dt=""string"">2022-09-05T09:41:55Z</DateUtc></FrequencyChange></FrequencyChanges></Clock>\n";TMS_Ibrahim-37-1;75029;100561;1;;452882857;2010242;2010242;09/05/2022;05/09/2022 09:41;11:41:55;2010147;0;;-999999;24;40387;0;1;1966;42353;1;1;1;2;1;1;1;BlockProcFischi;BlockList;1;25;0;;-999999;32;45637;0;1;744;46381;1;1;1;1;ProcFischi1;ListBlockFischi;17;1;1;0;1;3;Po2_B;200;2;op;3;2;33;1;17;2;0;TrialProc;1885;1580;Po2_B;151;1655;1807;ListFischi1;0;;2;203;187313;10;133;2763;190076;123;1;1675;1;979;574;1552;1;1
TMS_Ibrahim;37;1;"<?xml version=""1.0""?>\n<Clock xmlns:dt=""urn:schemas-microsoft-com:datatypes""><Description dt:dt=""string"">E-Prime Primary Realtime Clock</Description><StartTime><Timestamp dt:dt=""int"">0</Timestamp><DateUtc dt:dt=""string"">2022-09-05T09:41:55Z</DateUtc></StartTime><FrequencyChanges><FrequencyChange><Frequency dt:dt=""r8"">3312890</Frequency><Timestamp dt:dt=""r8"">34811947288</Timestamp><Current dt:dt=""r8"">0</Current><DateUtc dt:dt=""string"">2022-09-05T09:41:55Z</DateUtc></FrequencyChange></FrequencyChanges></Clock>\n";TMS_Ibrahim-37-1;75029;100561;1;;452882857;2010242;2010242;09/05/2022;05/09/2022 09:41;11:41:55;2010147;0;;-999999;24;40387;0;1;1966;42353;1;1;1;2;1;1;1;BlockProcFischi;BlockList;1;25;0;;-999999;32;45637;0;1;744;46381;1;1;1;1;ProcFischi1;ListBlockFischi;18;1;1;0;0;3;Po3_B;175;2;op;3;2;44;1;18;2;0;TrialProc;1462;1312;Po3_B;151;1729;1579;ListFischi1;0;;2;201;194803;10;13;1753;196556;297;1;1753;1;968;444;1456;1;1
TMS_Ibrahim;37;1;"<?xml version=""1.0""?>\n<Clock xmlns:dt=""urn:schemas-microsoft-com:datatypes""><Description dt:dt=""string"">E-Prime Primary Realtime Clock</Description><StartTime><Timestamp dt:dt=""int"">0</Timestamp><DateUtc dt:dt=""string"">2022-09-05T09:41:55Z</DateUtc></StartTime><FrequencyChanges><FrequencyChange><Frequency dt:dt=""r8"">3312890</Frequency><Timestamp dt:dt=""r8"">34811947288</Timestamp><Current dt:dt=""r8"">0</Current><DateUtc dt:dt=""string"">2022-09-05T09:41:55Z</DateUtc></FrequencyChange></FrequencyChanges></Clock>\n";TMS_Ibrahim-37-1;75029;100561;1;;452882857;2010242;2010242;09/05/2022;05/09/2022 09:41;11:41:55;2010147;0;;-999999;24;40387;0;1;1966;42353;1;1;1;2;1;1;1;BlockProcFischi;BlockList;1;25;0;;-999999;32;45637;0;1;744;46381;1;1;1;1;ProcFischi1;ListBlockFischi;19;1;2;0;0;3;Pr2_B;175;3;ug;3;2;17;1;19;3;1;TrialProc;2654;709;Pr2_B;185;1429;1243;ListFischi1;0;;2;203;203162;8;13;1458;204620;274;1;1458;1;1338;301;1184;1;1
TMS_Ibrahim;37;1;"<?xml version=""1.0""?>\n<Clock xmlns:dt=""urn:schemas-microsoft-com:datatypes""><Description dt:dt=""string"">E-Prime Primary Realtime Clock</Description><StartTime><Timestamp dt:dt=""int"">0</Timestamp><DateUtc dt:dt=""string"">2022-09-05T09:41:55Z</DateUtc></StartTime><FrequencyChanges><FrequencyChange><Frequency dt:dt=""r8"">3312890</Frequency><Timestamp dt:dt=""r8"">34811947288</Timestamp><Current dt:dt=""r8"">0</Current><DateUtc dt:dt=""string"">2022-09-05T09:41:55Z</DateUtc></FrequencyChange></FrequencyChanges></Clock>\n";TMS_Ibrahim-37-1;75029;100561;1;;452882857;2010242;2010242;09/05/2022;05/09/2022 09:41;11:41:55;2010147;0;;-999999;24;40387;0;1;1966;42353;1;1;1;2;1;1;1;BlockProcFischi;BlockList;1;25;0;;-999999;32;45637;0;1;744;46381;1;1;1;1;ProcFischi1;ListBlockFischi;20;1;1;0;0;3;Po2_B;175;2;op;3;2;43;1;20;2;0;TrialProc;1806;1577;Po2_B;114;1690;1803;ListFischi1;0;;2;203;211466;7;13;1714;213180;210;1;1714;1;1325;541;1504;1;1
TMS_Ibrahim;37;1;"<?xml version=""1.0""?>\n<Clock xmlns:dt=""urn:schemas-microsoft-com:datatypes""><Description dt:dt=""string"">E-Prime Primary Realtime Clock</Description><StartTime><Timestamp dt:dt=""int"">0</Timestamp><DateUtc dt:dt=""string"">2022-09-05T09:41:55Z</DateUtc></StartTime><FrequencyChanges><FrequencyChange><Frequency dt:dt=""r8"">3312890</Frequency><Timestamp dt:dt=""r8"">34811947288</Timestamp><Current dt:dt=""r8"">0</Current><DateUtc dt:dt=""string"">2022-09-05T09:41:55Z</DateUtc></FrequencyChange></FrequencyChanges></Clock>\n";TMS_Ibrahim-37-1;75029;100561;1;;452882857;2010242;2010242;09/05/2022;05/09/2022 09:41;11:41:55;2010147;0;;-999999;24;40387;0;1;1966;42353;1;1;1;2;1;1;1;BlockProcFischi;BlockList;1;25;0;;-999999;32;45637;0;1;744;46381;1;1;1;1;ProcFischi1;ListBlockFischi;21;1;2;0;0;5;Pr8_B;200;1;op;5;2;5;1;21;1;0;TrialProc;1487;712;Pr8_B;32;1770;1738;ListFischi1;0;;2;203;220674;9;15;1801;222475;169;1;1801;1;2026;460;1632;1;1
TMS_Ibrahim;37;1;"<?xml version=""1.0""?>\n<Clock xmlns:dt=""urn:schemas-microsoft-com:datatypes""><Description dt:dt=""string"">E-Prime Primary Realtime Clock</Description><StartTime><Timestamp dt:dt=""int"">0</Timestamp><DateUtc dt:dt=""string"">2022-09-05T09:41:55Z</DateUtc></StartTime><FrequencyChanges><FrequencyChange><Frequency dt:dt=""r8"">3312890</Frequency><Timestamp dt:dt=""r8"">34811947288</Timestamp><Current dt:dt=""r8"">0</Current><DateUtc dt:dt=""string"">2022-09-05T09:41:55Z</DateUtc></FrequencyChange></FrequencyChanges></Clock>\n";TMS_Ibrahim-37-1;75029;100561;1;;452882857;2010242;2010242;09/05/2022;05/09/2022 09:41;11:41:55;2010147;0;;-999999;24;40387;0;1;1966;42353;1;1;1;2;1;1;1;BlockProcFischi;BlockList;1;25;0;;-999999;32;45637;0;1;744;46381;1;1;1;1;ProcFischi1;ListBlockFischi;22;1;2;0;0;5;Pr4_B;175;1;op;5;2;3;1;22;1;0;TrialProc;1771;676;Pr4_B;32;1281;1249;ListFischi1;0;;2;203;230093;13;15;1310;231403;190;1;1310;1;1174;276;1120;1;1
TMS_Ibrahim;37;1;"<?xml version=""1.0""?>\n<Clock xmlns:dt=""urn:schemas-microsoft-com:datatypes""><Description dt:dt=""string"">E-Prime Primary Realtime Clock</Description><StartTime><Timestamp dt:dt=""int"">0</Timestamp><DateUtc dt:dt=""string"">2022-09-05T09:41:55Z</DateUtc></StartTime><FrequencyChanges><FrequencyChange><Frequency dt:dt=""r8"">3312890</Frequency><Timestamp dt:dt=""r8"">34811947288</Timestamp><Current dt:dt=""r8"">0</Current><DateUtc dt:dt=""string"">2022-09-05T09:41:55Z</DateUtc></FrequencyChange></FrequencyChanges></Clock>\n";TMS_Ibrahim-37-1;75029;100561;1;;452882857;2010242;2010242;09/05/2022;05/09/2022 09:41;11:41:55;2010147;0;;-999999;24;40387;0;1;1966;42353;1;1;1;2;1;1;1;BlockProcFischi;BlockList;1;25;0;;-999999;32;45637;0;1;744;46381;1;1;1;1;ProcFischi1;ListBlockFischi;23;1;1;0;0;5;Po2_B;150;4;ug;5;2;54;1;23;4;1;TrialProc;1281;1574;Po2_B;169;1632;1801;ListFischi1;0;;2;203;238577;6;15;1657;240234;250;1;1657;1;792;335;1407;1;1
TMS_Ibrahim;37;1;"<?xml version=""1.0""?>\n<Clock xmlns:dt=""urn:schemas-microsoft-com:datatypes""><Description dt:dt=""string"">E-Prime Primary Realtime Clock</Description><StartTime><Timestamp dt:dt=""int"">0</Timestamp><DateUtc dt:dt=""string"">2022-09-05T09:41:55Z</DateUtc></StartTime><FrequencyChanges><FrequencyChange><Frequency dt:dt=""r8"">3312890</Frequency><Timestamp dt:dt=""r8"">34811947288</Timestamp><Current dt:dt=""r8"">0</Current><DateUtc dt:dt=""string"">2022-09-05T09:41:55Z</DateUtc></FrequencyChange></FrequencyChanges></Clock>\n";TMS_Ibrahim-37-1;75029;100561;1;;452882857;2010242;2010242;09/05/2022;05/09/2022 09:41;11:41:55;2010147;0;;-999999;24;40387;0;1;1966;42353;1;1;1;2;1;1;1;BlockProcFischi;BlockList;1;25;0;;-999999;32;45637;0;1;744;46381;1;1;1;1;ProcFischi1;ListBlockFischi;24;1;2;0;0;3;Pr3_B;175;3;ug;3;2;23;1;24;3;1;TrialProc;2162;711;Pr3_B;100;1612;1712;ListFischi1;0;;2;203;247345;8;133;2793;250138;201;1;1641;1;859;467;1440;1;1
TMS_Ibrahim;37;1;"<?xml version=""1.0""?>\n<Clock xmlns:dt=""urn:schemas-microsoft-com:datatypes""><Description dt:dt=""string"">E-Prime Primary Realtime Clock</Description><StartTime><Timestamp dt:dt=""int"">0</Timestamp><DateUtc dt:dt=""string"">2022-09-05T09:41:55Z</DateUtc></StartTime><FrequencyChanges><FrequencyChange><Frequency dt:dt=""r8"">3312890</Frequency><Timestamp dt:dt=""r8"">34811947288</Timestamp><Current dt:dt=""r8"">0</Current><DateUtc dt:dt=""string"">2022-09-05T09:41:55Z</DateUtc></FrequencyChange></FrequencyChanges></Clock>\n";TMS_Ibrahim-37-1;75029;100561;1;;452882857;2010242;2010242;09/05/2022;05/09/2022 09:41;11:41:55;2010147;0;;-999999;24;40387;0;1;1966;42353;1;1;1;2;1;1;1;BlockProcFischi;BlockList;1;25;0;;-999999;32;45637;0;1;744;46381;1;1;1;1;ProcFischi1;ListBlockFischi;25;1;2;1;0;3;Prmod_B;150;3;ug;3;2;31;1;25;3;1;TrialProc;2376;1314;Prmod_B;97;1744;1647;ListFischi1;0;;2;203;255284;12;13;1766;257050;342;1;1766;1;1100;337;1424;1;1
TMS_Ibrahim;37;1;"<?xml version=""1.0""?>\n<Clock xmlns:dt=""urn:schemas-microsoft-com:datatypes""><Description dt:dt=""string"">E-Prime Primary Realtime Clock</Description><StartTime><Timestamp dt:dt=""int"">0</Timestamp><DateUtc dt:dt=""string"">2022-09-05T09:41:55Z</DateUtc></StartTime><FrequencyChanges><FrequencyChange><Frequency dt:dt=""r8"">3312890</Frequency><Timestamp dt:dt=""r8"">34811947288</Timestamp><Current dt:dt=""r8"">0</Current><DateUtc dt:dt=""string"">2022-09-05T09:41:55Z</DateUtc></FrequencyChange></FrequencyChanges></Clock>\n";TMS_Ibrahim-37-1;75029;100561;1;;452882857;2010242;2010242;09/05/2022;05/09/2022 09:41;11:41:55;2010147;0;;-999999;24;40387;0;1;1966;42353;1;1;1;2;1;1;1;BlockProcFischi;BlockList;1;25;0;;-999999;32;45637;0;1;744;46381;1;1;1;1;ProcFischi1;ListBlockFischi;26;1;1;0;0;3;Po4_B;150;2;op;3;2;45;1;26;2;0;TrialProc;1869;1341;Po4_B;63;1651;1713;ListFischi1;0;;2;203;263534;12;13;1675;265209;476;1;1675;1;1152;220;1199;1;1
TMS_Ibrahim;37;1;"<?xml version=""1.0""?>\n<Clock xmlns:dt=""urn:schemas-microsoft-com:datatypes""><Description dt:dt=""string"">E-Prime Primary Realtime Clock</Description><StartTime><Timestamp dt:dt=""int"">0</Timestamp><DateUtc dt:dt=""string"">2022-09-05T09:41:55Z</DateUtc></StartTime><FrequencyChanges><FrequencyChange><Frequency dt:dt=""r8"">3312890</Frequency><Timestamp dt:dt=""r8"">34811947288</Timestamp><Current dt:dt=""r8"">0</Current><DateUtc dt:dt=""string"">2022-09-05T09:41:55Z</DateUtc></FrequencyChange></FrequencyChanges></Clock>\n";TMS_Ibrahim-37-1;75029;100561;1;;452882857;2010242;2010242;09/05/2022;05/09/2022 09:41;11:41:55;2010147;0;;-999999;24;40387;0;1;1966;42353;1;1;1;2;1;1;1;BlockProcFischi;BlockList;1;25;0;;-999999;32;45637;0;1;744;46381;1;1;1;1;ProcFischi1;ListBlockFischi;27;1;2;0;0;3;Pr4_B;125;3;ug;3;2;24;1;27;3;1;TrialProc;1710;672;Pr4_B;200;1445;1245;ListFischi1;0;;2;203;273559;10;13;1474;275033;402;1;1474;1;1176;425;1072;1;1
TMS_Ibrahim;37;1;"<?xml version=""1.0""?>\n<Clock xmlns:dt=""urn:schemas-microsoft-com:datatypes""><Description dt:dt=""string"">E-Prime Primary Realtime Clock</Description><StartTime><Timestamp dt:dt=""int"">0</Timestamp><DateUtc dt:dt=""string"">2022-09-05T09:41:55Z</DateUtc></StartTime><FrequencyChanges><FrequencyChange><Frequency dt:dt=""r8"">3312890</Frequency><Timestamp dt:dt=""r8"">34811947288</Timestamp><Current dt:dt=""r8"">0</Current><DateUtc dt:dt=""string"">2022-09-05T09:41:55Z</DateUtc></FrequencyChange></FrequencyChanges></Clock>\n";TMS_Ibrahim-37-1;75029;100561;1;;452882857;2010242;2010242;09/05/2022;05/09/2022 09:41;11:41:55;2010147;0;;-999999;24;40387;0;1;1966;42353;1;1;1;2;1;1;1;BlockProcFischi;BlockList;1;25;0;;-999999;32;45637;0;1;744;46381;1;1;1;1;ProcFischi1;ListBlockFischi;28;1;2;0;0;5;Pr3_B;150;1;op;5;2;12;1;28;1;0;TrialProc;1776;710;Pr3_B;9;1718;1709;ListFischi1;0;;2;203;281772;7;15;1741;283513;333;1;1741;1;2948;348;1408;1;1
TMS_Ibrahim;37;1;"<?xml version=""1.0""?>\n<Clock xmlns:dt=""urn:schemas-microsoft-com:datatypes""><Description dt:dt=""string"">E-Prime Primary Realtime Clock</Description><StartTime><Timestamp dt:dt=""int"">0</Timestamp><DateUtc dt:dt=""string"">2022-09-05T09:41:55Z</DateUtc></StartTime><FrequencyChanges><FrequencyChange><Frequency dt:dt=""r8"">3312890</Frequency><Timestamp dt:dt=""r8"">34811947288</Timestamp><Current dt:dt=""r8"">0</Current><DateUtc dt:dt=""string"">2022-09-05T09:41:55Z</DateUtc></FrequencyChange></FrequencyChanges></Clock>\n";TMS_Ibrahim-37-1;75029;100561;1;;452882857;2010242;2010242;09/05/2022;05/09/2022 09:41;11:41:55;2010147;0;;-999999;24;40387;0;1;1966;42353;1;1;1;2;1;1;1;BlockProcFischi;BlockList;1;25;0;;-999999;32;45637;0;1;744;46381;1;1;1;1;ProcFischi1;ListBlockFischi;29;1;1;0;0;5;Po4_B;150;4;ug;5;2;61;1;29;4;1;TrialProc;2343;1355;Po4_B;39;1690;1728;ListFischi1;0;;4;210;292013;15;15;1723;293736;539;1;1723;1;1209;372;1184;1;1
TMS_Ibrahim;37;1;"<?xml version=""1.0""?>\n<Clock xmlns:dt=""urn:schemas-microsoft-com:datatypes""><Description dt:dt=""string"">E-Prime Primary Realtime Clock</Description><StartTime><Timestamp dt:dt=""int"">0</Timestamp><DateUtc dt:dt=""string"">2022-09-05T09:41:55Z</DateUtc></StartTime><FrequencyChanges><FrequencyChange><Frequency dt:dt=""r8"">3312890</Frequency><Timestamp dt:dt=""r8"">34811947288</Timestamp><Current dt:dt=""r8"">0</Current><DateUtc dt:dt=""string"">2022-09-05T09:41:55Z</DateUtc></FrequencyChange></FrequencyChanges></Clock>\n";TMS_Ibrahim-37-1;75029;100561;1;;452882857;2010242;2010242;09/05/2022;05/09/2022 09:41;11:41:55;2010147;0;;-999999;24;40387;0;1;1966;42353;1;1;1;2;1;1;1;BlockProcFischi;BlockList;1;25;0;;-999999;32;45637;0;1;744;46381;1;1;1;1;ProcFischi1;ListBlockFischi;30;1;1;0;0;5;Po3_B;125;4;ug;5;2;55;1;30;4;1;TrialProc;2561;1314;Po3_B;74;1655;1581;ListFischi1;0;;2;203;301507;11;15;1685;303192;533;1;1685;1;2307;436;1152;1;1
TMS_Ibrahim;37;1;"<?xml version=""1.0""?>\n<Clock xmlns:dt=""urn:schemas-microsoft-com:datatypes""><Description dt:dt=""string"">E-Prime Primary Realtime Clock</Description><StartTime><Timestamp dt:dt=""int"">0</Timestamp><DateUtc dt:dt=""string"">2022-09-05T09:41:55Z</DateUtc></StartTime><FrequencyChanges><FrequencyChange><Frequency dt:dt=""r8"">3312890</Frequency><Timestamp dt:dt=""r8"">34811947288</Timestamp><Current dt:dt=""r8"">0</Current><DateUtc dt:dt=""string"">2022-09-05T09:41:55Z</DateUtc></FrequencyChange></FrequencyChanges></Clock>\n";TMS_Ibrahim-37-1;75029;100561;1;;452882857;2010242;2010242;09/05/2022;05/09/2022 09:41;11:41:55;2010147;0;;-999999;24;40387;0;1;1966;42353;1;1;1;2;1;1;1;BlockProcFischi;BlockList;1;25;0;;-999999;32;45637;0;1;744;46381;1;1;1;1;ProcFischi1;ListBlockFischi;31;1;2;0;0;5;Pr3_B;125;1;op;5;2;2;1;31;1;0;TrialProc;4048;718;Pr3_B;95;1624;1719;ListFischi1;0;;2;203;311404;17;155;2956;314360;284;1;1660;1;1831;267;1376;1;1
TMS_Ibrahim;37;1;"<?xml version=""1.0""?>\n<Clock xmlns:dt=""urn:schemas-microsoft-com:datatypes""><Description dt:dt=""string"">E-Prime Primary Realtime Clock</Description><StartTime><Timestamp dt:dt=""int"">0</Timestamp><DateUtc dt:dt=""string"">2022-09-05T09:41:55Z</DateUtc></StartTime><FrequencyChanges><FrequencyChange><Frequency dt:dt=""r8"">3312890</Frequency><Timestamp dt:dt=""r8"">34811947288</Timestamp><Current dt:dt=""r8"">0</Current><DateUtc dt:dt=""string"">2022-09-05T09:41:55Z</DateUtc></FrequencyChange></FrequencyChanges></Clock>\n";TMS_Ibrahim-37-1;75029;100561;1;;452882857;2010242;2010242;09/05/2022;05/09/2022 09:41;11:41:55;2010147;0;;-999999;24;40387;0;1;1966;42353;1;1;1;2;1;1;1;BlockProcFischi;BlockList;1;25;0;;-999999;32;45637;0;1;744;46381;1;1;1;1;ProcFischi1;ListBlockFischi;32;1;2;0;0;5;Pr8_B;100;1;op;5;2;10;1;32;1;0;TrialProc;1158;719;Pr8_B;20;1725;1745;ListFischi1;0;;2;203;322027;16;15;1756;323783;285;1;1756;1;804;210;1471;1;1
TMS_Ibrahim;37;1;"<?xml version=""1.0""?>\n<Clock xmlns:dt=""urn:schemas-microsoft-com:datatypes""><Description dt:dt=""string"">E-Prime Primary Realtime Clock</Description><StartTime><Timestamp dt:dt=""int"">0</Timestamp><DateUtc dt:dt=""string"">2022-09-05T09:41:55Z</DateUtc></StartTime><FrequencyChanges><FrequencyChange><Frequency dt:dt=""r8"">3312890</Frequency><Timestamp dt:dt=""r8"">34811947288</Timestamp><Current dt:dt=""r8"">0</Current><DateUtc dt:dt=""string"">2022-09-05T09:41:55Z</DateUtc></FrequencyChange></FrequencyChanges></Clock>\n";TMS_Ibrahim-37-1;75029;100561;1;;452882857;2010242;2010242;09/05/2022;05/09/2022 09:41;11:41:55;2010147;0;;-999999;24;40387;0;1;1966;42353;1;1;1;2;1;1;1;BlockProcFischi;BlockList;1;25;0;;-999999;32;45637;0;1;744;46381;1;1;1;1;ProcFischi1;ListBlockFischi;33;1;1;0;0;5;Po2_B;100;4;ug;5;2;49;1;33;4;1;TrialProc;629;1582;Po2_B;15;1824;1809;ListFischi1;0;;2;201;329613;14;155;2298;331911;458;1;1851;1;815;490;1393;1;1
TMS_Ibrahim;37;1;"<?xml version=""1.0""?>\n<Clock xmlns:dt=""urn:schemas-microsoft-com:datatypes""><Description dt:dt=""string"">E-Prime Primary Realtime Clock</Description><StartTime><Timestamp dt:dt=""int"">0</Timestamp><DateUtc dt:dt=""string"">2022-09-05T09:41:55Z</DateUtc></StartTime><FrequencyChanges><FrequencyChange><Frequency dt:dt=""r8"">3312890</Frequency><Timestamp dt:dt=""r8"">34811947288</Timestamp><Current dt:dt=""r8"">0</Current><DateUtc dt:dt=""string"">2022-09-05T09:41:55Z</DateUtc></FrequencyChange></FrequencyChanges></Clock>\n";TMS_Ibrahim-37-1;75029;100561;1;;452882857;2010242;2010242;09/05/2022;05/09/2022 09:41;11:41:55;2010147;0;;-999999;24;40387;0;1;1966;42353;1;1;1;2;1;1;1;BlockProcFischi;BlockList;1;25;0;;-999999;32;45637;0;1;744;46381;1;1;1;1;ProcFischi1;ListBlockFischi;34;1;2;1;1;3;Prmod_B;125;3;ug;3;2;32;1;34;3;1;TrialProc;582;1314;Prmod_B;17;1664;1647;ListFischi1;0;;2;203;336773;11;13;1698;338471;306;1;1698;1;1042;478;1392;1;1
TMS_Ibrahim;37;1;"<?xml version=""1.0""?>\n<Clock xmlns:dt=""urn:schemas-microsoft-com:datatypes""><Description dt:dt=""string"">E-Prime Primary Realtime Clock</Description><StartTime><Timestamp dt:dt=""int"">0</Timestamp><DateUtc dt:dt=""string"">2022-09-05T09:41:55Z</DateUtc></StartTime><FrequencyChanges><FrequencyChange><Frequency dt:dt=""r8"">3312890</Frequency><Timestamp dt:dt=""r8"">34811947288</Timestamp><Current dt:dt=""r8"">0</Current><DateUtc dt:dt=""string"">2022-09-05T09:41:55Z</DateUtc></FrequencyChange></FrequencyChanges></Clock>\n";TMS_Ibrahim-37-1;75029;100561;1;;452882857;2010242;2010242;09/05/2022;05/09/2022 09:41;11:41:55;2010147;0;;-999999;24;40387;0;1;1966;42353;1;1;1;2;1;1;1;BlockProcFischi;BlockList;1;25;0;;-999999;32;45637;0;1;744;46381;1;1;1;1;ProcFischi1;ListBlockFischi;35;1;1;0;0;3;Po4_B;125;2;op;3;2;40;1;35;2;0;TrialProc;1865;1344;Po4_B;158;1560;1718;ListFischi1;0;;2;203;346179;14;13;1588;347767;339;1;1588;1;1383;488;1249;1;1
TMS_Ibrahim;37;1;"<?xml version=""1.0""?>\n<Clock xmlns:dt=""urn:schemas-microsoft-com:datatypes""><Description dt:dt=""string"">E-Prime Primary Realtime Clock</Description><StartTime><Timestamp dt:dt=""int"">0</Timestamp><DateUtc dt:dt=""string"">2022-09-05T09:41:55Z</DateUtc></StartTime><FrequencyChanges><FrequencyChange><Frequency dt:dt=""r8"">3312890</Frequency><Timestamp dt:dt=""r8"">34811947288</Timestamp><Current dt:dt=""r8"">0</Current><DateUtc dt:dt=""string"">2022-09-05T09:41:55Z</DateUtc></FrequencyChange></FrequencyChanges></Clock>\n";TMS_Ibrahim-37-1;75029;100561;1;;452882857;2010242;2010242;09/05/2022;05/09/2022 09:41;11:41:55;2010147;0;;-999999;24;40387;0;1;1966;42353;1;1;1;2;1;1;1;BlockProcFischi;BlockList;1;25;0;;-999999;32;45637;0;1;744;46381;1;1;1;1;ProcFischi1;ListBlockFischi;36;1;1;1;1;3;Pomod_B;125;2;op;3;2;47;1;36;2;0;TrialProc;2514;1316;Pomod_B;193;1869;1675;ListFischi1;0;;2;203;354511;13;13;1895;356406;311;1;1895;1;2433;258;1584;1;1
TMS_Ibrahim;37;1;"<?xml version=""1.0""?>\n<Clock xmlns:dt=""urn:schemas-microsoft-com:datatypes""><Description dt:dt=""string"">E-Prime Primary Realtime Clock</Description><StartTime><Timestamp dt:dt=""int"">0</Timestamp><DateUtc dt:dt=""string"">2022-09-05T09:41:55Z</DateUtc></StartTime><FrequencyChanges><FrequencyChange><Frequency dt:dt=""r8"">3312890</Frequency><Timestamp dt:dt=""r8"">34811947288</Timestamp><Current dt:dt=""r8"">0</Current><DateUtc dt:dt=""string"">2022-09-05T09:41:55Z</DateUtc></FrequencyChange></FrequencyChanges></Clock>\n";TMS_Ibrahim-37-1;75029;100561;1;;452882857;2010242;2010242;09/05/2022;05/09/2022 09:41;11:41:55;2010147;0;;-999999;24;40387;0;1;1966;42353;1;1;1;2;1;1;1;BlockProcFischi;BlockList;1;25;0;;-999999;32;45637;0;1;744;46381;1;1;1;1;ProcFischi1;ListBlockFischi;37;1;1;0;0;5;Po4_B;75;4;ug;5;2;56;1;37;4;1;TrialProc;2105;1339;Po4_B;175;1538;1713;ListFischi1;0;;2;203;365443;10;15;1571;367014;163;1;1571;1;2836;238;1408;1;1
TMS_Ibrahim;37;1;"<?xml version=""1.0""?>\n<Clock xmlns:dt=""urn:schemas-microsoft-com:datatypes""><Description dt:dt=""string"">E-Prime Primary Realtime Clock</Description><StartTime><Timestamp dt:dt=""int"">0</Timestamp><DateUtc dt:dt=""string"">2022-09-05T09:41:55Z</DateUtc></StartTime><FrequencyChanges><FrequencyChange><Frequency dt:dt=""r8"">3312890</Frequency><Timestamp dt:dt=""r8"">34811947288</Timestamp><Current dt:dt=""r8"">0</Current><DateUtc dt:dt=""string"">2022-09-05T09:41:55Z</DateUtc></FrequencyChange></FrequencyChanges></Clock>\n";TMS_Ibrahim-37-1;75029;100561;1;;452882857;2010242;2010242;09/05/2022;05/09/2022 09:41;11:41:55;2010147;0;;-999999;24;40387;0;1;1966;42353;1;1;1;2;1;1;1;BlockProcFischi;BlockList;1;25;0;;-999999;32;45637;0;1;744;46381;1;1;1;1;ProcFischi1;ListBlockFischi;38;1;1;1;1;5;Pomod_B;75;4;ug;5;2;64;1;38;4;1;TrialProc;1697;1310;Pomod_B;96;1765;1670;ListFischi1;0;;2;203;374803;6;15;1794;376597;418;1;1794;1;2147;435;1376;1;1
TMS_Ibrahim;37;1;"<?xml version=""1.0""?>\n<Clock xmlns:dt=""urn:schemas-microsoft-com:datatypes""><Description dt:dt=""string"">E-Prime Primary Realtime Clock</Description><StartTime><Timestamp dt:dt=""int"">0</Timestamp><DateUtc dt:dt=""string"">2022-09-05T09:41:55Z</DateUtc></StartTime><FrequencyChanges><FrequencyChange><Frequency dt:dt=""r8"">3312890</Frequency><Timestamp dt:dt=""r8"">34811947288</Timestamp><Current dt:dt=""r8"">0</Current><DateUtc dt:dt=""string"">2022-09-05T09:41:55Z</DateUtc></FrequencyChange></FrequencyChanges></Clock>\n";TMS_Ibrahim-37-1;75029;100561;1;;452882857;2010242;2010242;09/05/2022;05/09/2022 09:41;11:41:55;2010147;0;;-999999;24;40387;0;1;1966;42353;1;1;1;2;1;1;1;BlockProcFischi;BlockList;1;25;0;;-999999;32;45637;0;1;744;46381;1;1;1;1;ProcFischi1;ListBlockFischi;39;1;2;1;0;5;Prmod_B;75;1;op;5;2;16;1;39;1;0;TrialProc;2247;1312;Prmod_B;69;1576;1645;ListFischi1;0;;2;203;384290;8;15;1603;385893;259;1;1603;1;787;507;1344;1;1
TMS_Ibrahim;37;1;"<?xml version=""1.0""?>\n<Clock xmlns:dt=""urn:schemas-microsoft-com:datatypes""><Description dt:dt=""string"">E-Prime Primary Realtime Clock</Description><StartTime><Timestamp dt:dt=""int"">0</Timestamp><DateUtc dt:dt=""string"">2022-09-05T09:41:55Z</DateUtc></StartTime><FrequencyChanges><FrequencyChange><Frequency dt:dt=""r8"">3312890</Frequency><Timestamp dt:dt=""r8"">34811947288</Timestamp><Current dt:dt=""r8"">0</Current><DateUtc dt:dt=""string"">2022-09-05T09:41:55Z</DateUtc></FrequencyChange></FrequencyChanges></Clock>\n";TMS_Ibrahim-37-1;75029;100561;1;;452882857;2010242;2010242;09/05/2022;05/09/2022 09:41;11:41:55;2010147;0;;-999999;24;40387;0;1;1966;42353;1;1;1;2;1;1;1;BlockProcFischi;BlockList;1;25;0;;-999999;32;45637;0;1;744;46381;1;1;1;1;ProcFischi1;ListBlockFischi;40;1;2;0;0;5;Pr5_B;75;1;op;5;2;9;1;40;1;0;TrialProc;2388;674;Pr5_B;254;1529;1275;ListFischi1;0;;2;203;392710;12;15;1551;394261;303;1;1551;1;1329;347;1248;1;1
TMS_Ibrahim;37;1;"<?xml version=""1.0""?>\n<Clock xmlns:dt=""urn:schemas-microsoft-com:datatypes""><Description dt:dt=""string"">E-Prime Primary Realtime Clock</Description><StartTime><Timestamp dt:dt=""int"">0</Timestamp><DateUtc dt:dt=""string"">2022-09-05T09:41:55Z</DateUtc></StartTime><FrequencyChanges><FrequencyChange><Frequency dt:dt=""r8"">3312890</Frequency><Timestamp dt:dt=""r8"">34811947288</Timestamp><Current dt:dt=""r8"">0</Current><DateUtc dt:dt=""string"">2022-09-05T09:41:55Z</DateUtc></FrequencyChange></FrequencyChanges></Clock>\n";TMS_Ibrahim-37-1;75029;100561;1;;452882857;2010242;2010242;09/05/2022;05/09/2022 09:41;11:41:55;2010147;0;;-999999;24;40387;0;1;1966;42353;1;1;1;2;1;1;1;BlockProcFischi;BlockList;1;25;0;;-999999;32;45637;0;1;744;46381;1;1;1;1;ProcFischi1;ListBlockFischi;41;1;1;1;1;5;Pomod_B;75;4;ug;5;2;63;1;41;4;1;TrialProc;1572;1311;Pomod_B;65;1735;1671;ListFischi1;0;;2;203;401204;8;15;1760;402964;224;1;1760;1;471;380;1536;1;1
TMS_Ibrahim;37;1;"<?xml version=""1.0""?>\n<Clock xmlns:dt=""urn:schemas-microsoft-com:datatypes""><Description dt:dt=""string"">E-Prime Primary Realtime Clock</Description><StartTime><Timestamp dt:dt=""int"">0</Timestamp><DateUtc dt:dt=""string"">2022-09-05T09:41:55Z</DateUtc></StartTime><FrequencyChanges><FrequencyChange><Frequency dt:dt=""r8"">3312890</Frequency><Timestamp dt:dt=""r8"">34811947288</Timestamp><Current dt:dt=""r8"">0</Current><DateUtc dt:dt=""string"">2022-09-05T09:41:55Z</DateUtc></FrequencyChange></FrequencyChanges></Clock>\n";TMS_Ibrahim-37-1;75029;100561;1;;452882857;2010242;2010242;09/05/2022;05/09/2022 09:41;11:41:55;2010147;0;;-999999;24;40387;0;1;1966;42353;1;1;1;2;1;1;1;BlockProcFischi;BlockList;1;25;0;;-999999;32;45637;0;1;744;46381;1;1;1;1;ProcFischi1;ListBlockFischi;42;1;1;0;1;5;Po3_B;75;4;ug;5;2;60;1;42;4;1;TrialProc;2620;1311;Po3_B;45;1533;1578;ListFischi1;0;;2;203;409254;8;15;1566;410820;238;1;1566;1;1419;311;1328;1;1
TMS_Ibrahim;37;1;"<?xml version=""1.0""?>\n<Clock xmlns:dt=""urn:schemas-microsoft-com:datatypes""><Description dt:dt=""string"">E-Prime Primary Realtime Clock</Description><StartTime><Timestamp dt:dt=""int"">0</Timestamp><DateUtc dt:dt=""string"">2022-09-05T09:41:55Z</DateUtc></StartTime><FrequencyChanges><FrequencyChange><Frequency dt:dt=""r8"">3312890</Frequency><Timestamp dt:dt=""r8"">34811947288</Timestamp><Current dt:dt=""r8"">0</Current><DateUtc dt:dt=""string"">2022-09-05T09:41:55Z</DateUtc></FrequencyChange></FrequencyChanges></Clock>\n";TMS_Ibrahim-37-1;75029;100561;1;;452882857;2010242;2010242;09/05/2022;05/09/2022 09:41;11:41:55;2010147;0;;-999999;24;40387;0;1;1966;42353;1;1;1;2;1;1;1;BlockProcFischi;BlockList;1;25;0;;-999999;32;45637;0;1;744;46381;1;1;1;1;ProcFischi1;ListBlockFischi;43;1;2;0;0;3;Pr3_B;100;3;ug;3;2;28;1;43;3;1;TrialProc;1440;717;Pr3_B;10;1728;1717;ListFischi1;0;;2;203;418310;15;133;2078;420388;382;1;1758;1;2311;312;1376;1;1
TMS_Ibrahim;37;1;"<?xml version=""1.0""?>\n<Clock xmlns:dt=""urn:schemas-microsoft-com:datatypes""><Description dt:dt=""string"">E-Prime Primary Realtime Clock</Description><StartTime><Timestamp dt:dt=""int"">0</Timestamp><DateUtc dt:dt=""string"">2022-09-05T09:41:55Z</DateUtc></StartTime><FrequencyChanges><FrequencyChange><Frequency dt:dt=""r8"">3312890</Frequency><Timestamp dt:dt=""r8"">34811947288</Timestamp><Current dt:dt=""r8"">0</Current><DateUtc dt:dt=""string"">2022-09-05T09:41:55Z</DateUtc></FrequencyChange></FrequencyChanges></Clock>\n";TMS_Ibrahim-37-1;75029;100561;1;;452882857;2010242;2010242;09/05/2022;05/09/2022 09:41;11:41:55;2010147;0;;-999999;24;40387;0;1;1966;42353;1;1;1;2;1;1;1;BlockProcFischi;BlockList;1;25;0;;-999999;32;45637;0;1;744;46381;1;1;1;1;ProcFischi1;ListBlockFischi;44;1;2;0;0;3;Pr5_B;75;3;ug;3;2;20;1;44;3;1;TrialProc;2099;679;Pr5_B;166;1444;1278;ListFischi1;0;;2;203;427186;15;133;1985;429171;369;1;1473;1;2554;548;1104;1;1
TMS_Ibrahim;37;1;"<?xml version=""1.0""?>\n<Clock xmlns:dt=""urn:schemas-microsoft-com:datatypes""><Description dt:dt=""string"">E-Prime Primary Realtime Clock</Description><StartTime><Timestamp dt:dt=""int"">0</Timestamp><DateUtc dt:dt=""string"">2022-09-05T09:41:55Z</DateUtc></StartTime><FrequencyChanges><FrequencyChange><Frequency dt:dt=""r8"">3312890</Frequency><Timestamp dt:dt=""r8"">34811947288</Timestamp><Current dt:dt=""r8"">0</Current><DateUtc dt:dt=""string"">2022-09-05T09:41:55Z</DateUtc></FrequencyChange></FrequencyChanges></Clock>\n";TMS_Ibrahim-37-1;75029;100561;1;;452882857;2010242;2010242;09/05/2022;05/09/2022 09:41;11:41:55;2010147;0;;-999999;24;40387;0;1;1966;42353;1;1;1;2;1;1;1;BlockProcFischi;BlockList;1;25;0;;-999999;32;45637;0;1;744;46381;1;1;1;1;ProcFischi1;ListBlockFischi;45;1;2;1;1;5;Prmod_B;75;1;op;5;2;15;1;45;1;0;TrialProc;1529;1317;Prmod_B;69;1580;1649;ListFischi1;0;;2;203;436451;13;15;1600;438051;416;1;1600;1;1577;346;1184;1;1
TMS_Ibrahim;37;1;"<?xml version=""1.0""?>\n<Clock xmlns:dt=""urn:schemas-microsoft-com:datatypes""><Description dt:dt=""string"">E-Prime Primary Realtime Clock</Description><StartTime><Timestamp dt:dt=""int"">0</Timestamp><DateUtc dt:dt=""string"">2022-09-05T09:41:55Z</DateUtc></StartTime><FrequencyChanges><FrequencyChange><Frequency dt:dt=""r8"">3312890</Frequency><Timestamp dt:dt=""r8"">34811947288</Timestamp><Current dt:dt=""r8"">0</Current><DateUtc dt:dt=""string"">2022-09-05T09:41:55Z</DateUtc></FrequencyChange></FrequencyChanges></Clock>\n";TMS_Ibrahim-37-1;75029;100561;1;;452882857;2010242;2010242;09/05/2022;05/09/2022 09:41;11:41:55;2010147;0;;-999999;24;40387;0;1;1966;42353;1;1;1;2;1;1;1;BlockProcFischi;BlockList;1;25;0;;-999999;32;45637;0;1;744;46381;1;1;1;1;ProcFischi1;ListBlockFischi;46;1;2;0;1;3;Pr8_B;75;3;ug;3;2;21;1;46;3;1;TrialProc;2450;719;Pr8_B;199;1943;1745;ListFischi1;0;;2;203;445672;15;13;1963;447635;603;1;1963;1;845;445;1360;1;1
TMS_Ibrahim;37;1;"<?xml version=""1.0""?>\n<Clock xmlns:dt=""urn:schemas-microsoft-com:datatypes""><Description dt:dt=""string"">E-Prime Primary Realtime Clock</Description><StartTime><Timestamp dt:dt=""int"">0</Timestamp><DateUtc dt:dt=""string"">2022-09-05T09:41:55Z</DateUtc></StartTime><FrequencyChanges><FrequencyChange><Frequency dt:dt=""r8"">3312890</Frequency><Timestamp dt:dt=""r8"">34811947288</Timestamp><Current dt:dt=""r8"">0</Current><DateUtc dt:dt=""string"">2022-09-05T09:41:55Z</DateUtc></FrequencyChange></FrequencyChanges></Clock>\n";TMS_Ibrahim-37-1;75029;100561;1;;452882857;2010242;2010242;09/05/2022;05/09/2022 09:41;11:41:55;2010147;0;;-999999;24;40387;0;1;1966;42353;1;1;1;2;1;1;1;BlockProcFischi;BlockList;1;25;0;;-999999;32;45637;0;1;744;46381;1;1;1;1;ProcFischi1;ListBlockFischi;47;1;2;0;1;5;Pr2_B;75;1;op;5;2;1;1;47;1;0;TrialProc;940;715;Pr2_B;33;1281;1249;ListFischi1;0;;2;203;453712;12;155;1506;455218;402;1;1314;1;1016;273;912;1;1
TMS_Ibrahim;37;1;"<?xml version=""1.0""?>\n<Clock xmlns:dt=""urn:schemas-microsoft-com:datatypes""><Description dt:dt=""string"">E-Prime Primary Realtime Clock</Description><StartTime><Timestamp dt:dt=""int"">0</Timestamp><DateUtc dt:dt=""string"">2022-09-05T09:41:55Z</DateUtc></StartTime><FrequencyChanges><FrequencyChange><Frequency dt:dt=""r8"">3312890</Frequency><Timestamp dt:dt=""r8"">34811947288</Timestamp><Current dt:dt=""r8"">0</Current><DateUtc dt:dt=""string"">2022-09-05T09:41:55Z</DateUtc></FrequencyChange></FrequencyChanges></Clock>\n";TMS_Ibrahim-37-1;75029;100561;1;;452882857;2010242;2010242;09/05/2022;05/09/2022 09:41;11:41:55;2010147;0;;-999999;24;40387;0;1;1966;42353;1;1;1;2;1;1;1;BlockProcFischi;BlockList;1;25;0;;-999999;32;45637;0;1;744;46381;1;1;1;1;ProcFischi1;ListBlockFischi;48;1;1;0;2;3;Po8_B;125;2;op;3;2;42;1;48;2;0;TrialProc;2949;1242;Po8_B;108;1468;1575;ListFischi1;0;;2;203;462287;7;13;1491;463778;259;1;1491;1;1355;570;1232;1;1
TMS_Ibrahim;37;1;"<?xml version=""1.0""?>\n<Clock xmlns:dt=""urn:schemas-microsoft-com:datatypes""><Description dt:dt=""string"">E-Prime Primary Realtime Clock</Description><StartTime><Timestamp dt:dt=""int"">0</Timestamp><DateUtc dt:dt=""string"">2022-09-05T09:41:55Z</DateUtc></StartTime><FrequencyChanges><FrequencyChange><Frequency dt:dt=""r8"">3312890</Frequency><Timestamp dt:dt=""r8"">34811947288</Timestamp><Current dt:dt=""r8"">0</Current><DateUtc dt:dt=""string"">2022-09-05T09:41:55Z</DateUtc></FrequencyChange></FrequencyChanges></Clock>\n";TMS_Ibrahim-37-1;75029;100561;1;;452882857;2010242;2010242;09/05/2022;05/09/2022 09:41;11:41:55;2010147;0;;-999999;24;40387;0;1;1966;42353;1;1;1;2;1;1;1;BlockProcFischi;BlockList;1;25;0;;-999999;32;45637;0;1;744;46381;1;1;1;1;ProcFischi1;ListBlockFischi;49;1;1;1;2;3;Pomod_B;125;2;op;3;2;48;1;49;2;0;TrialProc;2300;1309;Pomod_B;40;1710;1670;ListFischi1;0;;2;203;470963;8;13;1743;472706;335;1;1743;1;1221;384;1408;1;1
TMS_Ibrahim;37;1;"<?xml version=""1.0""?>\n<Clock xmlns:dt=""urn:schemas-microsoft-com:datatypes""><Description dt:dt=""string"">E-Prime Primary Realtime Clock</Description><StartTime><Timestamp dt:dt=""int"">0</Timestamp><DateUtc dt:dt=""string"">2022-09-05T09:41:55Z</DateUtc></StartTime><FrequencyChanges><FrequencyChange><Frequency dt:dt=""r8"">3312890</Frequency><Timestamp dt:dt=""r8"">34811947288</Timestamp><Current dt:dt=""r8"">0</Current><DateUtc dt:dt=""string"">2022-09-05T09:41:55Z</DateUtc></FrequencyChange></FrequencyChanges></Clock>\n";TMS_Ibrahim-37-1;75029;100561;1;;452882857;2010242;2010242;09/05/2022;05/09/2022 09:41;11:41:55;2010147;0;;-999999;24;40387;0;1;1966;42353;1;1;1;2;1;1;1;BlockProcFischi;BlockList;1;25;0;;-999999;32;45637;0;1;744;46381;1;1;1;1;ProcFischi1;ListBlockFischi;50;1;2;0;2;3;Pr8_B;75;3;ug;3;2;26;1;50;3;1;TrialProc;1936;715;Pr8_B;50;1790;1741;ListFischi1;0;;2;203;479902;12;133;3395;483297;243;1;1811;1;1521;375;1568;1;1
TMS_Ibrahim;37;1;"<?xml version=""1.0""?>\n<Clock xmlns:dt=""urn:schemas-microsoft-com:datatypes""><Description dt:dt=""string"">E-Prime Primary Realtime Clock</Description><StartTime><Timestamp dt:dt=""int"">0</Timestamp><DateUtc dt:dt=""string"">2022-09-05T09:41:55Z</DateUtc></StartTime><FrequencyChanges><FrequencyChange><Frequency dt:dt=""r8"">3312890</Frequency><Timestamp dt:dt=""r8"">34811947288</Timestamp><Current dt:dt=""r8"">0</Current><DateUtc dt:dt=""string"">2022-09-05T09:41:55Z</DateUtc></FrequencyChange></FrequencyChanges></Clock>\n";TMS_Ibrahim-37-1;75029;100561;1;;452882857;2010242;2010242;09/05/2022;05/09/2022 09:41;11:41:55;2010147;0;;-999999;24;40387;0;1;1966;42353;1;1;1;2;1;1;1;BlockProcFischi;BlockList;1;25;0;;-999999;32;45637;0;1;744;46381;1;1;1;1;ProcFischi1;ListBlockFischi;51;1;2;0;2;3;Pr4_B;75;3;ug;3;2;29;1;51;3;1;TrialProc;2184;669;Pr4_B;71;1314;1243;ListFischi1;0;;2;203;488557;7;13;1364;489921;276;1;1364;1;2408;206;1088;1;1
TMS_Ibrahim;37;1;"<?xml version=""1.0""?>\n<Clock xmlns:dt=""urn:schemas-microsoft-com:datatypes""><Description dt:dt=""string"">E-Prime Primary Realtime Clock</Description><StartTime><Timestamp dt:dt=""int"">0</Timestamp><DateUtc dt:dt=""string"">2022-09-05T09:41:55Z</DateUtc></StartTime><FrequencyChanges><FrequencyChange><Frequency dt:dt=""r8"">3312890</Frequency><Timestamp dt:dt=""r8"">34811947288</Timestamp><Current dt:dt=""r8"">0</Current><DateUtc dt:dt=""string"">2022-09-05T09:41:55Z</DateUtc></FrequencyChange></FrequencyChanges></Clock>\n";TMS_Ibrahim-37-1;75029;100561;1;;452882857;2010242;2010242;09/05/2022;05/09/2022 09:41;11:41:55;2010147;0;;-999999;24;40387;0;1;1966;42353;1;1;1;2;1;1;1;BlockProcFischi;BlockList;1;25;0;;-999999;32;45637;0;1;744;46381;1;1;1;1;ProcFischi1;ListBlockFischi;52;1;1;0;0;3;Po5_B;100;2;op;3;2;46;1;52;2;0;TrialProc;2269;981;Po5_B;53;1421;1474;ListFischi1;0;;2;203;498081;12;13;1456;499537;240;1;1456;1;1751;530;1216;1;1
TMS_Ibrahim;37;1;"<?xml version=""1.0""?>\n<Clock xmlns:dt=""urn:schemas-microsoft-com:datatypes""><Description dt:dt=""string"">E-Prime Primary Realtime Clock</Description><StartTime><Timestamp dt:dt=""int"">0</Timestamp><DateUtc dt:dt=""string"">2022-09-05T09:41:55Z</DateUtc></StartTime><FrequencyChanges><FrequencyChange><Frequency dt:dt=""r8"">3312890</Frequency><Timestamp dt:dt=""r8"">34811947288</Timestamp><Current dt:dt=""r8"">0</Current><DateUtc dt:dt=""string"">2022-09-05T09:41:55Z</DateUtc></FrequencyChange></FrequencyChanges></Clock>\n";TMS_Ibrahim-37-1;75029;100561;1;;452882857;2010242;2010242;09/05/2022;05/09/2022 09:41;11:41:55;2010147;0;;-999999;24;40387;0;1;1966;42353;1;1;1;2;1;1;1;BlockProcFischi;BlockList;1;25;0;;-999999;32;45637;0;1;744;46381;1;1;1;1;ProcFischi1;ListBlockFischi;53;1;2;0;2;3;Pr4_B;75;3;ug;3;2;19;1;53;3;1;TrialProc;2584;672;Pr4_B;84;1331;1246;ListFischi1;0;;2;203;506855;8;13;1353;508208;281;1;1353;1;2257;218;1072;1;1
TMS_Ibrahim;37;1;"<?xml version=""1.0""?>\n<Clock xmlns:dt=""urn:schemas-microsoft-com:datatypes""><Description dt:dt=""string"">E-Prime Primary Realtime Clock</Description><StartTime><Timestamp dt:dt=""int"">0</Timestamp><DateUtc dt:dt=""string"">2022-09-05T09:41:55Z</DateUtc></StartTime><FrequencyChanges><FrequencyChange><Frequency dt:dt=""r8"">3312890</Frequency><Timestamp dt:dt=""r8"">34811947288</Timestamp><Current dt:dt=""r8"">0</Current><DateUtc dt:dt=""string"">2022-09-05T09:41:55Z</DateUtc></FrequencyChange></FrequencyChanges></Clock>\n";TMS_Ibrahim-37-1;75029;100561;1;;452882857;2010242;2010242;09/05/2022;05/09/2022 09:41;11:41:55;2010147;0;;-999999;24;40387;0;1;1966;42353;1;1;1;2;1;1;1;BlockProcFischi;BlockList;1;25;0;;-999999;32;45637;0;1;744;46381;1;1;1;1;ProcFischi1;ListBlockFischi;54;1;2;0;0;5;Pr4_B;50;1;op;5;2;8;1;54;1;0;TrialProc;1220;678;Pr4_B;28;1278;1251;ListFischi1;0;;2;201;514579;15;15;1309;515888;141;1;1309;1;1673;572;1168;1;1
TMS_Ibrahim;37;1;"<?xml version=""1.0""?>\n<Clock xmlns:dt=""urn:schemas-microsoft-com:datatypes""><Description dt:dt=""string"">E-Prime Primary Realtime Clock</Description><StartTime><Timestamp dt:dt=""int"">0</Timestamp><DateUtc dt:dt=""string"">2022-09-05T09:41:55Z</DateUtc></StartTime><FrequencyChanges><FrequencyChange><Frequency dt:dt=""r8"">3312890</Frequency><Timestamp dt:dt=""r8"">34811947288</Timestamp><Current dt:dt=""r8"">0</Current><DateUtc dt:dt=""string"">2022-09-05T09:41:55Z</DateUtc></FrequencyChange></FrequencyChanges></Clock>\n";TMS_Ibrahim-37-1;75029;100561;1;;452882857;2010242;2010242;09/05/2022;05/09/2022 09:41;11:41:55;2010147;0;;-999999;24;40387;0;1;1966;42353;1;1;1;2;1;1;1;BlockProcFischi;BlockList;1;25;0;;-999999;32;45637;0;1;744;46381;1;1;1;1;ProcFischi1;ListBlockFischi;55;1;1;0;0;3;Po2_B;75;2;op;3;2;38;1;55;2;0;TrialProc;851;1582;Po2_B;229;1579;1808;ListFischi1;0;;2;203;522832;12;133;2592;525424;208;1;1600;1;1029;531;1392;1;1
TMS_Ibrahim;37;1;"<?xml version=""1.0""?>\n<Clock xmlns:dt=""urn:schemas-microsoft-com:datatypes""><Description dt:dt=""string"">E-Prime Primary Realtime Clock</Description><StartTime><Timestamp dt:dt=""int"">0</Timestamp><DateUtc dt:dt=""string"">2022-09-05T09:41:55Z</DateUtc></StartTime><FrequencyChanges><FrequencyChange><Frequency dt:dt=""r8"">3312890</Frequency><Timestamp dt:dt=""r8"">34811947288</Timestamp><Current dt:dt=""r8"">0</Current><DateUtc dt:dt=""string"">2022-09-05T09:41:55Z</DateUtc></FrequencyChange></FrequencyChanges></Clock>\n";TMS_Ibrahim-37-1;75029;100561;1;;452882857;2010242;2010242;09/05/2022;05/09/2022 09:41;11:41:55;2010147;0;;-999999;24;40387;0;1;1966;42353;1;1;1;2;1;1;1;BlockProcFischi;BlockList;1;25;0;;-999999;32;45637;0;1;744;46381;1;1;1;1;ProcFischi1;ListBlockFischi;56;1;1;0;0;5;Po5_B;50;4;ug;5;2;52;1;56;4;1;TrialProc;1800;978;Po5_B;123;1347;1471;ListFischi1;0;;2;201;530632;9;15;1367;531999;282;1;1367;1;851;276;1085;1;1
TMS_Ibrahim;37;1;"<?xml version=""1.0""?>\n<Clock xmlns:dt=""urn:schemas-microsoft-com:datatypes""><Description dt:dt=""string"">E-Prime Primary Realtime Clock</Description><StartTime><Timestamp dt:dt=""int"">0</Timestamp><DateUtc dt:dt=""string"">2022-09-05T09:41:55Z</DateUtc></StartTime><FrequencyChanges><FrequencyChange><Frequency dt:dt=""r8"">3312890</Frequency><Timestamp dt:dt=""r8"">34811947288</Timestamp><Current dt:dt=""r8"">0</Current><DateUtc dt:dt=""string"">2022-09-05T09:41:55Z</DateUtc></FrequencyChange></FrequencyChanges></Clock>\n";TMS_Ibrahim-37-1;75029;100561;1;;452882857;2010242;2010242;09/05/2022;05/09/2022 09:41;11:41:55;2010147;0;;-999999;24;40387;0;1;1966;42353;1;1;1;2;1;1;1;BlockProcFischi;BlockList;1;25;0;;-999999;32;45637;0;1;744;46381;1;1;1;1;ProcFischi1;ListBlockFischi;57;1;1;0;1;5;Po2_B;50;4;ug;5;2;59;1;57;4;1;TrialProc;1715;1584;Po2_B;182;1629;1810;ListFischi1;0;;2;203;539089;15;15;1662;540751;174;1;1662;1;913;318;1488;1;1
TMS_Ibrahim;37;1;"<?xml version=""1.0""?>\n<Clock xmlns:dt=""urn:schemas-microsoft-com:datatypes""><Description dt:dt=""string"">E-Prime Primary Realtime Clock</Description><StartTime><Timestamp dt:dt=""int"">0</Timestamp><DateUtc dt:dt=""string"">2022-09-05T09:41:55Z</DateUtc></StartTime><FrequencyChanges><FrequencyChange><Frequency dt:dt=""r8"">3312890</Frequency><Timestamp dt:dt=""r8"">34811947288</Timestamp><Current dt:dt=""r8"">0</Current><DateUtc dt:dt=""string"">2022-09-05T09:41:55Z</DateUtc></FrequencyChange></FrequencyChanges></Clock>\n";TMS_Ibrahim-37-1;75029;100561;1;;452882857;2010242;2010242;09/05/2022;05/09/2022 09:41;11:41:55;2010147;0;;-999999;24;40387;0;1;1966;42353;1;1;1;2;1;1;1;BlockProcFischi;BlockList;1;25;0;;-999999;32;45637;0;1;744;46381;1;1;1;1;ProcFischi1;ListBlockFischi;58;1;2;0;0;5;Pr2_B;50;1;op;5;2;11;1;58;1;0;TrialProc;2888;714;Pr2_B;0;1247;1247;ListFischi1;0;;2;203;547422;12;15;1281;548703;353;1;1281;1;919;223;928;1;1
TMS_Ibrahim;37;1;"<?xml version=""1.0""?>\n<Clock xmlns:dt=""urn:schemas-microsoft-com:datatypes""><Description dt:dt=""string"">E-Prime Primary Realtime Clock</Description><StartTime><Timestamp dt:dt=""int"">0</Timestamp><DateUtc dt:dt=""string"">2022-09-05T09:41:55Z</DateUtc></StartTime><FrequencyChanges><FrequencyChange><Frequency dt:dt=""r8"">3312890</Frequency><Timestamp dt:dt=""r8"">34811947288</Timestamp><Current dt:dt=""r8"">0</Current><DateUtc dt:dt=""string"">2022-09-05T09:41:55Z</DateUtc></FrequencyChange></FrequencyChanges></Clock>\n";TMS_Ibrahim-37-1;75029;100561;1;;452882857;2010242;2010242;09/05/2022;05/09/2022 09:41;11:41:55;2010147;0;;-999999;24;40387;0;1;1966;42353;1;1;1;2;1;1;1;BlockProcFischi;BlockList;1;25;0;;-999999;32;45637;0;1;744;46381;1;1;1;1;ProcFischi1;ListBlockFischi;59;1;2;0;2;3;Pr3_B;75;3;ug;3;2;18;1;59;3;1;TrialProc;1124;714;Pr3_B;33;1681;1713;ListFischi1;0;;2;203;555459;12;1333;2827;558286;475;1;1707;1;1134;256;1232;1;1
TMS_Ibrahim;37;1;"<?xml version=""1.0""?>\n<Clock xmlns:dt=""urn:schemas-microsoft-com:datatypes""><Description dt:dt=""string"">E-Prime Primary Realtime Clock</Description><StartTime><Timestamp dt:dt=""int"">0</Timestamp><DateUtc dt:dt=""string"">2022-09-05T09:41:55Z</DateUtc></StartTime><FrequencyChanges><FrequencyChange><Frequency dt:dt=""r8"">3312890</Frequency><Timestamp dt:dt=""r8"">34811947288</Timestamp><Current dt:dt=""r8"">0</Current><DateUtc dt:dt=""string"">2022-09-05T09:41:55Z</DateUtc></FrequencyChange></FrequencyChanges></Clock>\n";TMS_Ibrahim-37-1;75029;100561;1;;452882857;2010242;2010242;09/05/2022;05/09/2022 09:41;11:41:55;2010147;0;;-999999;24;40387;0;1;1966;42353;1;1;1;2;1;1;1;BlockProcFischi;BlockList;1;25;0;;-999999;32;45637;0;1;744;46381;1;1;1;1;ProcFischi1;ListBlockFischi;60;1;2;0;0;5;Pr3_B;25;1;op;5;2;7;1;60;1;0;TrialProc;1535;711;Pr3_B;5;1706;1711;ListFischi1;0;;2;201;562673;8;155;2317;564990;365;1;1741;1;1181;376;1376;1;1
TMS_Ibrahim;37;1;"<?xml version=""1.0""?>\n<Clock xmlns:dt=""urn:schemas-microsoft-com:datatypes""><Description dt:dt=""string"">E-Prime Primary Realtime Clock</Description><StartTime><Timestamp dt:dt=""int"">0</Timestamp><DateUtc dt:dt=""string"">2022-09-05T09:41:55Z</DateUtc></StartTime><FrequencyChanges><FrequencyChange><Frequency dt:dt=""r8"">3312890</Frequency><Timestamp dt:dt=""r8"">34811947288</Timestamp><Current dt:dt=""r8"">0</Current><DateUtc dt:dt=""string"">2022-09-05T09:41:55Z</DateUtc></FrequencyChange></FrequencyChanges></Clock>\n";TMS_Ibrahim-37-1;75029;100561;1;;452882857;2010242;2010242;09/05/2022;05/09/2022 09:41;11:41:55;2010147;0;;-999999;24;40387;0;1;1966;42353;1;1;1;2;1;1;1;BlockProcFischi;BlockList;1;25;0;;-999999;32;45637;0;1;744;46381;1;1;1;1;ProcFischi1;ListBlockFischi;61;1;2;0;0;5;Pr4_B;25;1;op;5;2;13;1;61;1;0;TrialProc;1294;673;Pr4_B;204;1448;1245;ListFischi1;0;;2;203;570456;9;15;1478;571934;374;1;1478;1;949;290;1104;1;1
TMS_Ibrahim;37;1;"<?xml version=""1.0""?>\n<Clock xmlns:dt=""urn:schemas-microsoft-com:datatypes""><Description dt:dt=""string"">E-Prime Primary Realtime Clock</Description><StartTime><Timestamp dt:dt=""int"">0</Timestamp><DateUtc dt:dt=""string"">2022-09-05T09:41:55Z</DateUtc></StartTime><FrequencyChanges><FrequencyChange><Frequency dt:dt=""r8"">3312890</Frequency><Timestamp dt:dt=""r8"">34811947288</Timestamp><Current dt:dt=""r8"">0</Current><DateUtc dt:dt=""string"">2022-09-05T09:41:55Z</DateUtc></FrequencyChange></FrequencyChanges></Clock>\n";TMS_Ibrahim-37-1;75029;100561;1;;452882857;2010242;2010242;09/05/2022;05/09/2022 09:41;11:41:55;2010147;0;;-999999;24;40387;0;1;1966;42353;1;1;1;2;1;1;1;BlockProcFischi;BlockList;1;25;0;;-999999;32;45637;0;1;744;46381;1;1;1;1;ProcFischi1;ListBlockFischi;62;1;1;0;1;3;Po3_B;75;2;op;3;2;39;1;62;2;0;TrialProc;1351;1310;Po3_B;126;1452;1578;ListFischi1;0;;2;203;578720;8;13;1485;580205;269;1;1485;1;1003;581;1216;1;1
TMS_Ibrahim;37;1;"<?xml version=""1.0""?>\n<Clock xmlns:dt=""urn:schemas-microsoft-com:datatypes""><Description dt:dt=""string"">E-Prime Primary Realtime Clock</Description><StartTime><Timestamp dt:dt=""int"">0</Timestamp><DateUtc dt:dt=""string"">2022-09-05T09:41:55Z</DateUtc></StartTime><FrequencyChanges><FrequencyChange><Frequency dt:dt=""r8"">3312890</Frequency><Timestamp dt:dt=""r8"">34811947288</Timestamp><Current dt:dt=""r8"">0</Current><DateUtc dt:dt=""string"">2022-09-05T09:41:55Z</DateUtc></FrequencyChange></FrequencyChanges></Clock>\n";TMS_Ibrahim-37-1;75029;100561;1;;452882857;2010242;2010242;09/05/2022;05/09/2022 09:41;11:41:55;2010147;0;;-999999;24;40387;0;1;1966;42353;1;1;1;2;1;1;1;BlockProcFischi;BlockList;1;25;0;;-999999;32;45637;0;1;744;46381;1;1;1;1;ProcFischi1;ListBlockFischi;63;1;1;0;2;5;Po8_B;50;4;ug;5;2;53;1;63;4;1;TrialProc;1230;1245;Po8_B;46;1623;1577;ListFischi1;0;;2;203;587023;9;1555;2798;589821;319;1;1646;1;933;471;1327;1;1
TMS_Ibrahim;37;1;"<?xml version=""1.0""?>\n<Clock xmlns:dt=""urn:schemas-microsoft-com:datatypes""><Description dt:dt=""string"">E-Prime Primary Realtime Clock</Description><StartTime><Timestamp dt:dt=""int"">0</Timestamp><DateUtc dt:dt=""string"">2022-09-05T09:41:55Z</DateUtc></StartTime><FrequencyChanges><FrequencyChange><Frequency dt:dt=""r8"">3312890</Frequency><Timestamp dt:dt=""r8"">34811947288</Timestamp><Current dt:dt=""r8"">0</Current><DateUtc dt:dt=""string"">2022-09-05T09:41:55Z</DateUtc></FrequencyChange></FrequencyChanges></Clock>\n";TMS_Ibrahim-37-1;75029;100561;1;;452882857;2010242;2010242;09/05/2022;05/09/2022 09:41;11:41:55;2010147;0;;-999999;24;40387;0;1;1966;42353;1;1;1;2;1;1;1;BlockProcFischi;BlockList;1;25;0;;-999999;32;45637;0;1;744;46381;1;1;1;1;ProcFischi1;ListBlockFischi;64;1;2;0;1;5;Pr5_B;25;1;op;5;2;4;1;64;1;0;TrialProc;654;671;Pr5_B;123;1394;1271;ListFischi1;0;;2;203;594926;9;15;1423;596349;383;1;1423;1;1785;511;1040;1;1
TMS_Ibrahim;37;3;"<?xml version=""1.0""?>\n<Clock xmlns:dt=""urn:schemas-microsoft-com:datatypes""><Description dt:dt=""string"">E-Prime Primary Realtime Clock</Description><StartTime><Timestamp dt:dt=""int"">0</Timestamp><DateUtc dt:dt=""string"">2022-09-05T10:40:13Z</DateUtc></StartTime><FrequencyChanges><FrequencyChange><Frequency dt:dt=""r8"">3312890</Frequency><Timestamp dt:dt=""r8"">46399333575</Timestamp><Current dt:dt=""r8"">0</Current><DateUtc dt:dt=""string"">2022-09-05T10:40:13Z</DateUtc></FrequencyChange></FrequencyChanges></Clock>\n";TMS_Ibrahim-37-3;75029;100561;1;;-844653256;2010242;2010242;09/05/2022;05/09/2022 10:40;12:40:13;2010147;0;;-999999;45;53081;0;1;2284;55365;1;1;1;2;1;2;1;BlockProcFischi;BlockList;1;25;0;;-999999;32;57982;0;1;1093;59075;1;1;1;1;ProcFischi1;ListBlockFischi;1;1;1;0;0;5;Po4_B;250;4;ug;5;2;56;1;1;4;1;TrialProc;1063;1373;Po4_B;317;1455;1773;ListFischi1;0;;5;210;63688;34;15;1489;65177;289;1;1489;1;763;286;1200;1;1
TMS_Ibrahim;37;3;"<?xml version=""1.0""?>\n<Clock xmlns:dt=""urn:schemas-microsoft-com:datatypes""><Description dt:dt=""string"">E-Prime Primary Realtime Clock</Description><StartTime><Timestamp dt:dt=""int"">0</Timestamp><DateUtc dt:dt=""string"">2022-09-05T10:40:13Z</DateUtc></StartTime><FrequencyChanges><FrequencyChange><Frequency dt:dt=""r8"">3312890</Frequency><Timestamp dt:dt=""r8"">46399333575</Timestamp><Current dt:dt=""r8"">0</Current><DateUtc dt:dt=""string"">2022-09-05T10:40:13Z</DateUtc></FrequencyChange></FrequencyChanges></Clock>\n";TMS_Ibrahim-37-3;75029;100561;1;;-844653256;2010242;2010242;09/05/2022;05/09/2022 10:40;12:40:13;2010147;0;;-999999;45;53081;0;1;2284;55365;1;1;1;2;1;2;1;BlockProcFischi;BlockList;1;25;0;;-999999;32;57982;0;1;1093;59075;1;1;1;1;ProcFischi1;ListBlockFischi;2;1;1;0;1;5;Po4_B;250;4;ug;5;2;51;1;2;4;1;TrialProc;1596;1346;Po4_B;221;1498;1719;ListFischi1;0;;2;208;73088;17;15;1528;74616;233;1;1528;1;671;484;1295;1;1
TMS_Ibrahim;37;3;"<?xml version=""1.0""?>\n<Clock xmlns:dt=""urn:schemas-microsoft-com:datatypes""><Description dt:dt=""string"">E-Prime Primary Realtime Clock</Description><StartTime><Timestamp dt:dt=""int"">0</Timestamp><DateUtc dt:dt=""string"">2022-09-05T10:40:13Z</DateUtc></StartTime><FrequencyChanges><FrequencyChange><Frequency dt:dt=""r8"">3312890</Frequency><Timestamp dt:dt=""r8"">46399333575</Timestamp><Current dt:dt=""r8"">0</Current><DateUtc dt:dt=""string"">2022-09-05T10:40:13Z</DateUtc></FrequencyChange></FrequencyChanges></Clock>\n";TMS_Ibrahim-37-3;75029;100561;1;;-844653256;2010242;2010242;09/05/2022;05/09/2022 10:40;12:40:13;2010147;0;;-999999;45;53081;0;1;2284;55365;1;1;1;2;1;2;1;BlockProcFischi;BlockList;1;25;0;;-999999;32;57982;0;1;1093;59075;1;1;1;1;ProcFischi1;ListBlockFischi;3;1;1;1;0;3;Pomod_B;250;2;op;3;2;48;1;3;2;0;TrialProc;931;1315;Pomod_B;57;1733;1676;ListFischi1;0;;2;203;81529;12;133;2367;83896;239;1;1759;1;1253;423;1520;1;1
TMS_Ibrahim;37;3;"<?xml version=""1.0""?>\n<Clock xmlns:dt=""urn:schemas-microsoft-com:datatypes""><Description dt:dt=""string"">E-Prime Primary Realtime Clock</Description><StartTime><Timestamp dt:dt=""int"">0</Timestamp><DateUtc dt:dt=""string"">2022-09-05T10:40:13Z</DateUtc></StartTime><FrequencyChanges><FrequencyChange><Frequency dt:dt=""r8"">3312890</Frequency><Timestamp dt:dt=""r8"">46399333575</Timestamp><Current dt:dt=""r8"">0</Current><DateUtc dt:dt=""string"">2022-09-05T10:40:13Z</DateUtc></FrequencyChange></FrequencyChanges></Clock>\n";TMS_Ibrahim-37-3;75029;100561;1;;-844653256;2010242;2010242;09/05/2022;05/09/2022 10:40;12:40:13;2010147;0;;-999999;45;53081;0;1;2284;55365;1;1;1;2;1;2;1;BlockProcFischi;BlockList;1;25;0;;-999999;32;57982;0;1;1093;59075;1;1;1;1;ProcFischi1;ListBlockFischi;4;1;1;1;0;5;Pomod_B;225;4;ug;5;2;63;1;4;4;1;TrialProc;1523;1316;Pomod_B;74;1749;1676;ListFischi1;0;;2;203;89445;13;15;1779;91224;259;1;1779;1;796;209;1520;1;1
TMS_Ibrahim;37;3;"<?xml version=""1.0""?>\n<Clock xmlns:dt=""urn:schemas-microsoft-com:datatypes""><Description dt:dt=""string"">E-Prime Primary Realtime Clock</Description><StartTime><Timestamp dt:dt=""int"">0</Timestamp><DateUtc dt:dt=""string"">2022-09-05T10:40:13Z</DateUtc></StartTime><FrequencyChanges><FrequencyChange><Frequency dt:dt=""r8"">3312890</Frequency><Timestamp dt:dt=""r8"">46399333575</Timestamp><Current dt:dt=""r8"">0</Current><DateUtc dt:dt=""string"">2022-09-05T10:40:13Z</DateUtc></FrequencyChange></FrequencyChanges></Clock>\n";TMS_Ibrahim-37-3;75029;100561;1;;-844653256;2010242;2010242;09/05/2022;05/09/2022 10:40;12:40:13;2010147;0;;-999999;45;53081;0;1;2284;55365;1;1;1;2;1;2;1;BlockProcFischi;BlockList;1;25;0;;-999999;32;57982;0;1;1093;59075;1;1;1;1;ProcFischi1;ListBlockFischi;5;1;2;0;0;5;Pr8_B;250;1;op;5;2;10;1;5;1;0;TrialProc;2342;720;Pr8_B;55;1802;1747;ListFischi1;0;;2;203;97784;18;15;1824;99608;144;1;1824;1;1657;334;1680;1;1
TMS_Ibrahim;37;3;"<?xml version=""1.0""?>\n<Clock xmlns:dt=""urn:schemas-microsoft-com:datatypes""><Description dt:dt=""string"">E-Prime Primary Realtime Clock</Description><StartTime><Timestamp dt:dt=""int"">0</Timestamp><DateUtc dt:dt=""string"">2022-09-05T10:40:13Z</DateUtc></StartTime><FrequencyChanges><FrequencyChange><Frequency dt:dt=""r8"">3312890</Frequency><Timestamp dt:dt=""r8"">46399333575</Timestamp><Current dt:dt=""r8"">0</Current><DateUtc dt:dt=""string"">2022-09-05T10:40:13Z</DateUtc></FrequencyChange></FrequencyChanges></Clock>\n";TMS_Ibrahim-37-3;75029;100561;1;;-844653256;2010242;2010242;09/05/2022;05/09/2022 10:40;12:40:13;2010147;0;;-999999;45;53081;0;1;2284;55365;1;1;1;2;1;2;1;BlockProcFischi;BlockList;1;25;0;;-999999;32;57982;0;1;1093;59075;1;1;1;1;ProcFischi1;ListBlockFischi;6;1;2;0;0;3;Pr8_B;250;3;ug;3;2;21;1;6;3;1;TrialProc;1864;714;Pr8_B;54;1794;1740;ListFischi1;0;;2;203;106134;11;133;2033;108167;209;1;1825;1;1597;240;1616;1;1
TMS_Ibrahim;37;3;"<?xml version=""1.0""?>\n<Clock xmlns:dt=""urn:schemas-microsoft-com:datatypes""><Description dt:dt=""string"">E-Prime Primary Realtime Clock</Description><StartTime><Timestamp dt:dt=""int"">0</Timestamp><DateUtc dt:dt=""string"">2022-09-05T10:40:13Z</DateUtc></StartTime><FrequencyChanges><FrequencyChange><Frequency dt:dt=""r8"">3312890</Frequency><Timestamp dt:dt=""r8"">46399333575</Timestamp><Current dt:dt=""r8"">0</Current><DateUtc dt:dt=""string"">2022-09-05T10:40:13Z</DateUtc></FrequencyChange></FrequencyChanges></Clock>\n";TMS_Ibrahim-37-3;75029;100561;1;;-844653256;2010242;2010242;09/05/2022;05/09/2022 10:40;12:40:13;2010147;0;;-999999;45;53081;0;1;2284;55365;1;1;1;2;1;2;1;BlockProcFischi;BlockList;1;25;0;;-999999;32;57982;0;1;1093;59075;1;1;1;1;ProcFischi1;ListBlockFischi;7;1;1;0;0;5;Po5_B;200;4;ug;5;2;57;1;7;4;1;TrialProc;2062;979;Po5_B;89;1383;1472;ListFischi1;0;;2;203;114172;10;15;1403;115575;267;1;1403;1;1628;208;1136;1;1
TMS_Ibrahim;37;3;"<?xml version=""1.0""?>\n<Clock xmlns:dt=""urn:schemas-microsoft-com:datatypes""><Description dt:dt=""string"">E-Prime Primary Realtime Clock</Description><StartTime><Timestamp dt:dt=""int"">0</Timestamp><DateUtc dt:dt=""string"">2022-09-05T10:40:13Z</DateUtc></StartTime><FrequencyChanges><FrequencyChange><Frequency dt:dt=""r8"">3312890</Frequency><Timestamp dt:dt=""r8"">46399333575</Timestamp><Current dt:dt=""r8"">0</Current><DateUtc dt:dt=""string"">2022-09-05T10:40:13Z</DateUtc></FrequencyChange></FrequencyChanges></Clock>\n";TMS_Ibrahim-37-3;75029;100561;1;;-844653256;2010242;2010242;09/05/2022;05/09/2022 10:40;12:40:13;2010147;0;;-999999;45;53081;0;1;2284;55365;1;1;1;2;1;2;1;BlockProcFischi;BlockList;1;25;0;;-999999;32;57982;0;1;1093;59075;1;1;1;1;ProcFischi1;ListBlockFischi;8;1;1;0;0;3;Po5_B;225;2;op;3;2;41;1;8;2;0;TrialProc;2392;980;Po5_B;3;1470;1473;ListFischi1;0;;2;203;122873;12;13;1502;124375;126;1;1502;1;1479;580;1376;1;1
TMS_Ibrahim;37;3;"<?xml version=""1.0""?>\n<Clock xmlns:dt=""urn:schemas-microsoft-com:datatypes""><Description dt:dt=""string"">E-Prime Primary Realtime Clock</Description><StartTime><Timestamp dt:dt=""int"">0</Timestamp><DateUtc dt:dt=""string"">2022-09-05T10:40:13Z</DateUtc></StartTime><FrequencyChanges><FrequencyChange><Frequency dt:dt=""r8"">3312890</Frequency><Timestamp dt:dt=""r8"">46399333575</Timestamp><Current dt:dt=""r8"">0</Current><DateUtc dt:dt=""string"">2022-09-05T10:40:13Z</DateUtc></FrequencyChange></FrequencyChanges></Clock>\n";TMS_Ibrahim-37-3;75029;100561;1;;-844653256;2010242;2010242;09/05/2022;05/09/2022 10:40;12:40:13;2010147;0;;-999999;45;53081;0;1;2284;55365;1;1;1;2;1;2;1;BlockProcFischi;BlockList;1;25;0;;-999999;32;57982;0;1;1093;59075;1;1;1;1;ProcFischi1;ListBlockFischi;9;1;2;0;0;5;Pr5_B;225;1;op;5;2;14;1;9;1;0;TrialProc;1260;677;Pr5_B;159;1434;1276;ListFischi1;0;;2;203;131401;14;15;1469;132870;269;1;1469;1;1082;510;1200;1;1
TMS_Ibrahim;37;3;"<?xml version=""1.0""?>\n<Clock xmlns:dt=""urn:schemas-microsoft-com:datatypes""><Description dt:dt=""string"">E-Prime Primary Realtime Clock</Description><StartTime><Timestamp dt:dt=""int"">0</Timestamp><DateUtc dt:dt=""string"">2022-09-05T10:40:13Z</DateUtc></StartTime><FrequencyChanges><FrequencyChange><Frequency dt:dt=""r8"">3312890</Frequency><Timestamp dt:dt=""r8"">46399333575</Timestamp><Current dt:dt=""r8"">0</Current><DateUtc dt:dt=""string"">2022-09-05T10:40:13Z</DateUtc></FrequencyChange></FrequencyChanges></Clock>\n";TMS_Ibrahim-37-3;75029;100561;1;;-844653256;2010242;2010242;09/05/2022;05/09/2022 10:40;12:40:13;2010147;0;;-999999;45;53081;0;1;2284;55365;1;1;1;2;1;2;1;BlockProcFischi;BlockList;1;25;0;;-999999;32;57982;0;1;1093;59075;1;1;1;1;ProcFischi1;ListBlockFischi;10;1;1;0;0;3;Po3_B;200;2;op;3;2;34;1;10;2;0;TrialProc;723;1311;Po3_B;85;1492;1578;ListFischi1;0;;2;201;138684;8;13;1514;140198;314;1;1514;1;716;596;1200;1;1
TMS_Ibrahim;37;3;"<?xml version=""1.0""?>\n<Clock xmlns:dt=""urn:schemas-microsoft-com:datatypes""><Description dt:dt=""string"">E-Prime Primary Realtime Clock</Description><StartTime><Timestamp dt:dt=""int"">0</Timestamp><DateUtc dt:dt=""string"">2022-09-05T10:40:13Z</DateUtc></StartTime><FrequencyChanges><FrequencyChange><Frequency dt:dt=""r8"">3312890</Frequency><Timestamp dt:dt=""r8"">46399333575</Timestamp><Current dt:dt=""r8"">0</Current><DateUtc dt:dt=""string"">2022-09-05T10:40:13Z</DateUtc></FrequencyChange></FrequencyChanges></Clock>\n";TMS_Ibrahim-37-3;75029;100561;1;;-844653256;2010242;2010242;09/05/2022;05/09/2022 10:40;12:40:13;2010147;0;;-999999;45;53081;0;1;2284;55365;1;1;1;2;1;2;1;BlockProcFischi;BlockList;1;25;0;;-999999;32;57982;0;1;1093;59075;1;1;1;1;ProcFischi1;ListBlockFischi;11;1;2;1;0;3;Prmod_B;225;3;ug;3;2;31;1;11;3;1;TrialProc;1660;1316;Prmod_B;63;1587;1649;ListFischi1;0;;2;203;146769;13;13;1621;148390;245;1;1621;1;989;426;1376;1;1
TMS_Ibrahim;37;3;"<?xml version=""1.0""?>\n<Clock xmlns:dt=""urn:schemas-microsoft-com:datatypes""><Description dt:dt=""string"">E-Prime Primary Realtime Clock</Description><StartTime><Timestamp dt:dt=""int"">0</Timestamp><DateUtc dt:dt=""string"">2022-09-05T10:40:13Z</DateUtc></StartTime><FrequencyChanges><FrequencyChange><Frequency dt:dt=""r8"">3312890</Frequency><Timestamp dt:dt=""r8"">46399333575</Timestamp><Current dt:dt=""r8"">0</Current><DateUtc dt:dt=""string"">2022-09-05T10:40:13Z</DateUtc></FrequencyChange></FrequencyChanges></Clock>\n";TMS_Ibrahim-37-3;75029;100561;1;;-844653256;2010242;2010242;09/05/2022;05/09/2022 10:40;12:40:13;2010147;0;;-999999;45;53081;0;1;2284;55365;1;1;1;2;1;2;1;BlockProcFischi;BlockList;1;25;0;;-999999;32;57982;0;1;1093;59075;1;1;1;1;ProcFischi1;ListBlockFischi;12;1;2;0;0;5;Pr4_B;200;1;op;5;2;3;1;12;1;0;TrialProc;1244;671;Pr4_B;115;1360;1244;ListFischi1;0;;2;203;155118;8;15;1383;156501;215;1;1383;1;1502;307;1168;1;1
TMS_Ibrahim;37;3;"<?xml version=""1.0""?>\n<Clock xmlns:dt=""urn:schemas-microsoft-com:datatypes""><Description dt:dt=""string"">E-Prime Primary Realtime Clock</Description><StartTime><Timestamp dt:dt=""int"">0</Timestamp><DateUtc dt:dt=""string"">2022-09-05T10:40:13Z</DateUtc></StartTime><FrequencyChanges><FrequencyChange><Frequency dt:dt=""r8"">3312890</Frequency><Timestamp dt:dt=""r8"">46399333575</Timestamp><Current dt:dt=""r8"">0</Current><DateUtc dt:dt=""string"">2022-09-05T10:40:13Z</DateUtc></FrequencyChange></FrequencyChanges></Clock>\n";TMS_Ibrahim-37-3;75029;100561;1;;-844653256;2010242;2010242;09/05/2022;05/09/2022 10:40;12:40:13;2010147;0;;-999999;45;53081;0;1;2284;55365;1;1;1;2;1;2;1;BlockProcFischi;BlockList;1;25;0;;-999999;32;57982;0;1;1093;59075;1;1;1;1;ProcFischi1;ListBlockFischi;13;1;2;0;0;3;Pr8_B;200;3;ug;3;2;26;1;13;3;1;TrialProc;1748;714;Pr8_B;49;1691;1740;ListFischi1;0;;2;201;162632;11;13;1725;164357;237;1;1725;1;549;453;1488;1;1
TMS_Ibrahim;37;3;"<?xml version=""1.0""?>\n<Clock xmlns:dt=""urn:schemas-microsoft-com:datatypes""><Description dt:dt=""string"">E-Prime Primary Realtime Clock</Description><StartTime><Timestamp dt:dt=""int"">0</Timestamp><DateUtc dt:dt=""string"">2022-09-05T10:40:13Z</DateUtc></StartTime><FrequencyChanges><FrequencyChange><Frequency dt:dt=""r8"">3312890</Frequency><Timestamp dt:dt=""r8"">46399333575</Timestamp><Current dt:dt=""r8"">0</Current><DateUtc dt:dt=""string"">2022-09-05T10:40:13Z</DateUtc></FrequencyChange></FrequencyChanges></Clock>\n";TMS_Ibrahim-37-3;75029;100561;1;;-844653256;2010242;2010242;09/05/2022;05/09/2022 10:40;12:40:13;2010147;0;;-999999;45;53081;0;1;2284;55365;1;1;1;2;1;2;1;BlockProcFischi;BlockList;1;25;0;;-999999;32;57982;0;1;1093;59075;1;1;1;1;ProcFischi1;ListBlockFischi;14;1;1;0;0;5;Po2_B;175;4;ug;5;2;59;1;14;4;1;TrialProc;1164;1577;Po2_B;73;1730;1804;ListFischi1;0;;2;203;170605;8;15;1752;172357;248;1;1752;1;522;201;1504;1;1
TMS_Ibrahim;37;3;"<?xml version=""1.0""?>\n<Clock xmlns:dt=""urn:schemas-microsoft-com:datatypes""><Description dt:dt=""string"">E-Prime Primary Realtime Clock</Description><StartTime><Timestamp dt:dt=""int"">0</Timestamp><DateUtc dt:dt=""string"">2022-09-05T10:40:13Z</DateUtc></StartTime><FrequencyChanges><FrequencyChange><Frequency dt:dt=""r8"">3312890</Frequency><Timestamp dt:dt=""r8"">46399333575</Timestamp><Current dt:dt=""r8"">0</Current><DateUtc dt:dt=""string"">2022-09-05T10:40:13Z</DateUtc></FrequencyChange></FrequencyChanges></Clock>\n";TMS_Ibrahim-37-3;75029;100561;1;;-844653256;2010242;2010242;09/05/2022;05/09/2022 10:40;12:40:13;2010147;0;;-999999;45;53081;0;1;2284;55365;1;1;1;2;1;2;1;BlockProcFischi;BlockList;1;25;0;;-999999;32;57982;0;1;1093;59075;1;1;1;1;ProcFischi1;ListBlockFischi;15;1;2;0;0;3;Pr5_B;175;3;ug;3;2;30;1;15;3;1;TrialProc;639;674;Pr5_B;115;1388;1273;ListFischi1;0;;2;201;178025;12;13;1419;179444;188;1;1419;1;1416;381;1231;1;1
TMS_Ibrahim;37;3;"<?xml version=""1.0""?>\n<Clock xmlns:dt=""urn:schemas-microsoft-com:datatypes""><Description dt:dt=""string"">E-Prime Primary Realtime Clock</Description><StartTime><Timestamp dt:dt=""int"">0</Timestamp><DateUtc dt:dt=""string"">2022-09-05T10:40:13Z</DateUtc></StartTime><FrequencyChanges><FrequencyChange><Frequency dt:dt=""r8"">3312890</Frequency><Timestamp dt:dt=""r8"">46399333575</Timestamp><Current dt:dt=""r8"">0</Current><DateUtc dt:dt=""string"">2022-09-05T10:40:13Z</DateUtc></FrequencyChange></FrequencyChanges></Clock>\n";TMS_Ibrahim-37-3;75029;100561;1;;-844653256;2010242;2010242;09/05/2022;05/09/2022 10:40;12:40:13;2010147;0;;-999999;45;53081;0;1;2284;55365;1;1;1;2;1;2;1;BlockProcFischi;BlockList;1;25;0;;-999999;32;57982;0;1;1093;59075;1;1;1;1;ProcFischi1;ListBlockFischi;16;1;2;0;0;5;Pr3_B;175;1;op;5;2;7;1;16;1;0;TrialProc;1015;716;Pr3_B;59;1657;1715;ListFischi1;0;;2;203;185381;13;15;1679;187060;271;1;1679;1;572;418;1408;1;1
TMS_Ibrahim;37;3;"<?xml version=""1.0""?>\n<Clock xmlns:dt=""urn:schemas-microsoft-com:datatypes""><Description dt:dt=""string"">E-Prime Primary Realtime Clock</Description><StartTime><Timestamp dt:dt=""int"">0</Timestamp><DateUtc dt:dt=""string"">2022-09-05T10:40:13Z</DateUtc></StartTime><FrequencyChanges><FrequencyChange><Frequency dt:dt=""r8"">3312890</Frequency><Timestamp dt:dt=""r8"">46399333575</Timestamp><Current dt:dt=""r8"">0</Current><DateUtc dt:dt=""string"">2022-09-05T10:40:13Z</DateUtc></FrequencyChange></FrequencyChanges></Clock>\n";TMS_Ibrahim-37-3;75029;100561;1;;-844653256;2010242;2010242;09/05/2022;05/09/2022 10:40;12:40:13;2010147;0;;-999999;45;53081;0;1;2284;55365;1;1;1;2;1;2;1;BlockProcFischi;BlockList;1;25;0;;-999999;32;57982;0;1;1093;59075;1;1;1;1;ProcFischi1;ListBlockFischi;17;1;1;0;0;3;Po2_B;175;2;op;3;2;38;1;17;2;0;TrialProc;1524;1577;Po2_B;288;1515;1802;ListFischi1;0;;1;201;192837;7;13;1551;194388;351;1;1551;1;919;261;1200;1;1
TMS_Ibrahim;37;3;"<?xml version=""1.0""?>\n<Clock xmlns:dt=""urn:schemas-microsoft-com:datatypes""><Description dt:dt=""string"">E-Prime Primary Realtime Clock</Description><StartTime><Timestamp dt:dt=""int"">0</Timestamp><DateUtc dt:dt=""string"">2022-09-05T10:40:13Z</DateUtc></StartTime><FrequencyChanges><FrequencyChange><Frequency dt:dt=""r8"">3312890</Frequency><Timestamp dt:dt=""r8"">46399333575</Timestamp><Current dt:dt=""r8"">0</Current><DateUtc dt:dt=""string"">2022-09-05T10:40:13Z</DateUtc></FrequencyChange></FrequencyChanges></Clock>\n";TMS_Ibrahim-37-3;75029;100561;1;;-844653256;2010242;2010242;09/05/2022;05/09/2022 10:40;12:40:13;2010147;0;;-999999;45;53081;0;1;2284;55365;1;1;1;2;1;2;1;BlockProcFischi;BlockList;1;25;0;;-999999;32;57982;0;1;1093;59075;1;1;1;1;ProcFischi1;ListBlockFischi;18;1;1;0;0;5;Po4_B;150;4;ug;5;2;61;1;18;4;1;TrialProc;1222;1343;Po4_B;513;2229;1717;ListFischi1;0;;2;203;201386;15;15;2250;203636;378;1;2250;1;3123;210;1872;1;1
TMS_Ibrahim;37;3;"<?xml version=""1.0""?>\n<Clock xmlns:dt=""urn:schemas-microsoft-com:datatypes""><Description dt:dt=""string"">E-Prime Primary Realtime Clock</Description><StartTime><Timestamp dt:dt=""int"">0</Timestamp><DateUtc dt:dt=""string"">2022-09-05T10:40:13Z</DateUtc></StartTime><FrequencyChanges><FrequencyChange><Frequency dt:dt=""r8"">3312890</Frequency><Timestamp dt:dt=""r8"">46399333575</Timestamp><Current dt:dt=""r8"">0</Current><DateUtc dt:dt=""string"">2022-09-05T10:40:13Z</DateUtc></FrequencyChange></FrequencyChanges></Clock>\n";TMS_Ibrahim-37-3;75029;100561;1;;-844653256;2010242;2010242;09/05/2022;05/09/2022 10:40;12:40:13;2010147;0;;-999999;45;53081;0;1;2284;55365;1;1;1;2;1;2;1;BlockProcFischi;BlockList;1;25;0;;-999999;32;57982;0;1;1093;59075;1;1;1;1;ProcFischi1;ListBlockFischi;19;1;2;0;0;3;Pr4_B;150;3;ug;3;2;24;1;19;3;1;TrialProc;1490;675;Pr4_B;9;1258;1249;ListFischi1;0;;2;203;210278;12;13;1277;211555;349;1;1277;1;3381;479;928;1;1
TMS_Ibrahim;37;3;"<?xml version=""1.0""?>\n<Clock xmlns:dt=""urn:schemas-microsoft-com:datatypes""><Description dt:dt=""string"">E-Prime Primary Realtime Clock</Description><StartTime><Timestamp dt:dt=""int"">0</Timestamp><DateUtc dt:dt=""string"">2022-09-05T10:40:13Z</DateUtc></StartTime><FrequencyChanges><FrequencyChange><Frequency dt:dt=""r8"">3312890</Frequency><Timestamp dt:dt=""r8"">46399333575</Timestamp><Current dt:dt=""r8"">0</Current><DateUtc dt:dt=""string"">2022-09-05T10:40:13Z</DateUtc></FrequencyChange></FrequencyChanges></Clock>\n";TMS_Ibrahim-37-3;75029;100561;1;;-844653256;2010242;2010242;09/05/2022;05/09/2022 10:40;12:40:13;2010147;0;;-999999;45;53081;0;1;2284;55365;1;1;1;2;1;2;1;BlockProcFischi;BlockList;1;25;0;;-999999;32;57982;0;1;1093;59075;1;1;1;1;ProcFischi1;ListBlockFischi;20;1;2;0;0;5;Pr2_B;150;1;op;5;2;6;1;20;1;0;TrialProc;2997;719;Pr2_B;93;1158;1252;ListFischi1;0;;2;203;219472;15;15;1187;220659;259;1;1187;1;1046;542;928;1;1
TMS_Ibrahim;37;3;"<?xml version=""1.0""?>\n<Clock xmlns:dt=""urn:schemas-microsoft-com:datatypes""><Description dt:dt=""string"">E-Prime Primary Realtime Clock</Description><StartTime><Timestamp dt:dt=""int"">0</Timestamp><DateUtc dt:dt=""string"">2022-09-05T10:40:13Z</DateUtc></StartTime><FrequencyChanges><FrequencyChange><Frequency dt:dt=""r8"">3312890</Frequency><Timestamp dt:dt=""r8"">46399333575</Timestamp><Current dt:dt=""r8"">0</Current><DateUtc dt:dt=""string"">2022-09-05T10:40:13Z</DateUtc></FrequencyChange></FrequencyChanges></Clock>\n";TMS_Ibrahim-37-3;75029;100561;1;;-844653256;2010242;2010242;09/05/2022;05/09/2022 10:40;12:40:13;2010147;0;;-999999;45;53081;0;1;2284;55365;1;1;1;2;1;2;1;BlockProcFischi;BlockList;1;25;0;;-999999;32;57982;0;1;1093;59075;1;1;1;1;ProcFischi1;ListBlockFischi;21;1;1;0;1;3;Po4_B;175;2;op;3;2;45;1;21;2;0;TrialProc;1506;1340;Po4_B;279;1433;1713;ListFischi1;0;;2;203;228167;10;13;1468;229635;204;1;1468;1;2611;299;1264;1;1
TMS_Ibrahim;37;3;"<?xml version=""1.0""?>\n<Clock xmlns:dt=""urn:schemas-microsoft-com:datatypes""><Description dt:dt=""string"">E-Prime Primary Realtime Clock</Description><StartTime><Timestamp dt:dt=""int"">0</Timestamp><DateUtc dt:dt=""string"">2022-09-05T10:40:13Z</DateUtc></StartTime><FrequencyChanges><FrequencyChange><Frequency dt:dt=""r8"">3312890</Frequency><Timestamp dt:dt=""r8"">46399333575</Timestamp><Current dt:dt=""r8"">0</Current><DateUtc dt:dt=""string"">2022-09-05T10:40:13Z</DateUtc></FrequencyChange></FrequencyChanges></Clock>\n";TMS_Ibrahim-37-3;75029;100561;1;;-844653256;2010242;2010242;09/05/2022;05/09/2022 10:40;12:40:13;2010147;0;;-999999;45;53081;0;1;2284;55365;1;1;1;2;1;2;1;BlockProcFischi;BlockList;1;25;0;;-999999;32;57982;0;1;1093;59075;1;1;1;1;ProcFischi1;ListBlockFischi;22;1;1;0;1;5;Po2_B;150;4;ug;5;2;49;1;22;4;1;TrialProc;2940;1581;Po2_B;279;1528;1807;ListFischi1;0;;2;203;237282;11;155;2560;239842;256;1;1552;1;2700;348;1296;1;1
TMS_Ibrahim;37;3;"<?xml version=""1.0""?>\n<Clock xmlns:dt=""urn:schemas-microsoft-com:datatypes""><Description dt:dt=""string"">E-Prime Primary Realtime Clock</Description><StartTime><Timestamp dt:dt=""int"">0</Timestamp><DateUtc dt:dt=""string"">2022-09-05T10:40:13Z</DateUtc></StartTime><FrequencyChanges><FrequencyChange><Frequency dt:dt=""r8"">3312890</Frequency><Timestamp dt:dt=""r8"">46399333575</Timestamp><Current dt:dt=""r8"">0</Current><DateUtc dt:dt=""string"">2022-09-05T10:40:13Z</DateUtc></FrequencyChange></FrequencyChanges></Clock>\n";TMS_Ibrahim-37-3;75029;100561;1;;-844653256;2010242;2010242;09/05/2022;05/09/2022 10:40;12:40:13;2010147;0;;-999999;45;53081;0;1;2284;55365;1;1;1;2;1;2;1;BlockProcFischi;BlockList;1;25;0;;-999999;32;57982;0;1;1093;59075;1;1;1;1;ProcFischi1;ListBlockFischi;23;1;1;0;2;5;Po2_B;150;4;ug;5;2;54;1;23;4;1;TrialProc;961;1580;Po2_B;139;1667;1807;ListFischi1;0;;2;203;248466;9;15;1696;250162;272;1;1696;1;2318;493;1424;1;1
TMS_Ibrahim;37;3;"<?xml version=""1.0""?>\n<Clock xmlns:dt=""urn:schemas-microsoft-com:datatypes""><Description dt:dt=""string"">E-Prime Primary Realtime Clock</Description><StartTime><Timestamp dt:dt=""int"">0</Timestamp><DateUtc dt:dt=""string"">2022-09-05T10:40:13Z</DateUtc></StartTime><FrequencyChanges><FrequencyChange><Frequency dt:dt=""r8"">3312890</Frequency><Timestamp dt:dt=""r8"">46399333575</Timestamp><Current dt:dt=""r8"">0</Current><DateUtc dt:dt=""string"">2022-09-05T10:40:13Z</DateUtc></FrequencyChange></FrequencyChanges></Clock>\n";TMS_Ibrahim-37-3;75029;100561;1;;-844653256;2010242;2010242;09/05/2022;05/09/2022 10:40;12:40:13;2010147;0;;-999999;45;53081;0;1;2284;55365;1;1;1;2;1;2;1;BlockProcFischi;BlockList;1;25;0;;-999999;32;57982;0;1;1093;59075;1;1;1;1;ProcFischi1;ListBlockFischi;24;1;2;0;0;5;Pr4_B;125;1;op;5;2;8;1;24;1;0;TrialProc;3050;680;Pr4_B;8;1260;1252;ListFischi1;0;;2;203;257509;16;15;1293;258802;237;1;1293;1;1672;239;1056;1;1
TMS_Ibrahim;37;3;"<?xml version=""1.0""?>\n<Clock xmlns:dt=""urn:schemas-microsoft-com:datatypes""><Description dt:dt=""string"">E-Prime Primary Realtime Clock</Description><StartTime><Timestamp dt:dt=""int"">0</Timestamp><DateUtc dt:dt=""string"">2022-09-05T10:40:13Z</DateUtc></StartTime><FrequencyChanges><FrequencyChange><Frequency dt:dt=""r8"">3312890</Frequency><Timestamp dt:dt=""r8"">46399333575</Timestamp><Current dt:dt=""r8"">0</Current><DateUtc dt:dt=""string"">2022-09-05T10:40:13Z</DateUtc></FrequencyChange></FrequencyChanges></Clock>\n";TMS_Ibrahim-37-3;75029;100561;1;;-844653256;2010242;2010242;09/05/2022;05/09/2022 10:40;12:40:13;2010147;0;;-999999;45;53081;0;1;2284;55365;1;1;1;2;1;2;1;BlockProcFischi;BlockList;1;25;0;;-999999;32;57982;0;1;1093;59075;1;1;1;1;ProcFischi1;ListBlockFischi;25;1;1;0;2;3;Po8_B;175;2;op;3;2;42;1;25;2;0;TrialProc;2585;1251;Po8_B;133;1451;1585;ListFischi1;0;;2;203;266694;14;13;1483;268177;219;1;1483;1;2090;457;1264;1;1
TMS_Ibrahim;37;3;"<?xml version=""1.0""?>\n<Clock xmlns:dt=""urn:schemas-microsoft-com:datatypes""><Description dt:dt=""string"">E-Prime Primary Realtime Clock</Description><StartTime><Timestamp dt:dt=""int"">0</Timestamp><DateUtc dt:dt=""string"">2022-09-05T10:40:13Z</DateUtc></StartTime><FrequencyChanges><FrequencyChange><Frequency dt:dt=""r8"">3312890</Frequency><Timestamp dt:dt=""r8"">46399333575</Timestamp><Current dt:dt=""r8"">0</Current><DateUtc dt:dt=""string"">2022-09-05T10:40:13Z</DateUtc></FrequencyChange></FrequencyChanges></Clock>\n";TMS_Ibrahim-37-3;75029;100561;1;;-844653256;2010242;2010242;09/05/2022;05/09/2022 10:40;12:40:13;2010147;0;;-999999;45;53081;0;1;2284;55365;1;1;1;2;1;2;1;BlockProcFischi;BlockList;1;25;0;;-999999;32;57982;0;1;1093;59075;1;1;1;1;ProcFischi1;ListBlockFischi;26;1;1;0;0;3;Po8_B;150;2;op;3;2;37;1;26;2;0;TrialProc;3174;1247;Po8_B;174;1407;1580;ListFischi1;0;;2;203;276348;10;13;1429;277777;213;1;1429;1;548;594;1216;1;1
TMS_Ibrahim;37;3;"<?xml version=""1.0""?>\n<Clock xmlns:dt=""urn:schemas-microsoft-com:datatypes""><Description dt:dt=""string"">E-Prime Primary Realtime Clock</Description><StartTime><Timestamp dt:dt=""int"">0</Timestamp><DateUtc dt:dt=""string"">2022-09-05T10:40:13Z</DateUtc></StartTime><FrequencyChanges><FrequencyChange><Frequency dt:dt=""r8"">3312890</Frequency><Timestamp dt:dt=""r8"">46399333575</Timestamp><Current dt:dt=""r8"">0</Current><DateUtc dt:dt=""string"">2022-09-05T10:40:13Z</DateUtc></FrequencyChange></FrequencyChanges></Clock>\n";TMS_Ibrahim-37-3;75029;100561;1;;-844653256;2010242;2010242;09/05/2022;05/09/2022 10:40;12:40:13;2010147;0;;-999999;45;53081;0;1;2284;55365;1;1;1;2;1;2;1;BlockProcFischi;BlockList;1;25;0;;-999999;32;57982;0;1;1093;59075;1;1;1;1;ProcFischi1;ListBlockFischi;27;1;2;0;0;5;Pr3_B;100;1;op;5;2;12;1;27;1;0;TrialProc;2594;721;Pr3_B;38;1758;1720;ListFischi1;0;;2;203;284351;17;15;1777;286128;242;1;1777;1;1388;369;1535;1;1
TMS_Ibrahim;37;3;"<?xml version=""1.0""?>\n<Clock xmlns:dt=""urn:schemas-microsoft-com:datatypes""><Description dt:dt=""string"">E-Prime Primary Realtime Clock</Description><StartTime><Timestamp dt:dt=""int"">0</Timestamp><DateUtc dt:dt=""string"">2022-09-05T10:40:13Z</DateUtc></StartTime><FrequencyChanges><FrequencyChange><Frequency dt:dt=""r8"">3312890</Frequency><Timestamp dt:dt=""r8"">46399333575</Timestamp><Current dt:dt=""r8"">0</Current><DateUtc dt:dt=""string"">2022-09-05T10:40:13Z</DateUtc></FrequencyChange></FrequencyChanges></Clock>\n";TMS_Ibrahim-37-3;75029;100561;1;;-844653256;2010242;2010242;09/05/2022;05/09/2022 10:40;12:40:13;2010147;0;;-999999;45;53081;0;1;2284;55365;1;1;1;2;1;2;1;BlockProcFischi;BlockList;1;25;0;;-999999;32;57982;0;1;1093;59075;1;1;1;1;ProcFischi1;ListBlockFischi;28;1;2;0;0;5;Pr5_B;75;1;op;5;2;9;1;28;1;0;TrialProc;1963;677;Pr5_B;135;1414;1278;ListFischi1;0;;2;203;293883;14;15;1445;295328;245;1;1445;1;2285;512;1200;1;1
TMS_Ibrahim;37;3;"<?xml version=""1.0""?>\n<Clock xmlns:dt=""urn:schemas-microsoft-com:datatypes""><Description dt:dt=""string"">E-Prime Primary Realtime Clock</Description><StartTime><Timestamp dt:dt=""int"">0</Timestamp><DateUtc dt:dt=""string"">2022-09-05T10:40:13Z</DateUtc></StartTime><FrequencyChanges><FrequencyChange><Frequency dt:dt=""r8"">3312890</Frequency><Timestamp dt:dt=""r8"">46399333575</Timestamp><Current dt:dt=""r8"">0</Current><DateUtc dt:dt=""string"">2022-09-05T10:40:13Z</DateUtc></FrequencyChange></FrequencyChanges></Clock>\n";TMS_Ibrahim-37-3;75029;100561;1;;-844653256;2010242;2010242;09/05/2022;05/09/2022 10:40;12:40:13;2010147;0;;-999999;45;53081;0;1;2284;55365;1;1;1;2;1;2;1;BlockProcFischi;BlockList;1;25;0;;-999999;32;57982;0;1;1093;59075;1;1;1;1;ProcFischi1;ListBlockFischi;29;1;2;0;1;5;Pr2_B;75;1;op;5;2;11;1;29;1;0;TrialProc;1140;716;Pr2_B;22;1227;1249;ListFischi1;0;;2;203;301749;12;155;1403;303152;124;1;1259;1;2428;586;1135;1;1
TMS_Ibrahim;37;3;"<?xml version=""1.0""?>\n<Clock xmlns:dt=""urn:schemas-microsoft-com:datatypes""><Description dt:dt=""string"">E-Prime Primary Realtime Clock</Description><StartTime><Timestamp dt:dt=""int"">0</Timestamp><DateUtc dt:dt=""string"">2022-09-05T10:40:13Z</DateUtc></StartTime><FrequencyChanges><FrequencyChange><Frequency dt:dt=""r8"">3312890</Frequency><Timestamp dt:dt=""r8"">46399333575</Timestamp><Current dt:dt=""r8"">0</Current><DateUtc dt:dt=""string"">2022-09-05T10:40:13Z</DateUtc></FrequencyChange></FrequencyChanges></Clock>\n";TMS_Ibrahim-37-3;75029;100561;1;;-844653256;2010242;2010242;09/05/2022;05/09/2022 10:40;12:40:13;2010147;0;;-999999;45;53081;0;1;2284;55365;1;1;1;2;1;2;1;BlockProcFischi;BlockList;1;25;0;;-999999;32;57982;0;1;1093;59075;1;1;1;1;ProcFischi1;ListBlockFischi;30;1;2;1;0;3;Prmod_B;125;3;ug;3;2;32;1;30;3;1;TrialProc;2154;1311;Prmod_B;84;1560;1644;ListFischi1;0;;2;203;309603;8;133;2380;311983;125;1;1596;1;1041;534;1471;1;1
TMS_Ibrahim;37;3;"<?xml version=""1.0""?>\n<Clock xmlns:dt=""urn:schemas-microsoft-com:datatypes""><Description dt:dt=""string"">E-Prime Primary Realtime Clock</Description><StartTime><Timestamp dt:dt=""int"">0</Timestamp><DateUtc dt:dt=""string"">2022-09-05T10:40:13Z</DateUtc></StartTime><FrequencyChanges><FrequencyChange><Frequency dt:dt=""r8"">3312890</Frequency><Timestamp dt:dt=""r8"">46399333575</Timestamp><Current dt:dt=""r8"">0</Current><DateUtc dt:dt=""string"">2022-09-05T10:40:13Z</DateUtc></FrequencyChange></FrequencyChanges></Clock>\n";TMS_Ibrahim-37-3;75029;100561;1;;-844653256;2010242;2010242;09/05/2022;05/09/2022 10:40;12:40:13;2010147;0;;-999999;45;53081;0;1;2284;55365;1;1;1;2;1;2;1;BlockProcFischi;BlockList;1;25;0;;-999999;32;57982;0;1;1093;59075;1;1;1;1;ProcFischi1;ListBlockFischi;31;1;2;0;0;5;Pr8_B;50;1;op;5;2;5;1;31;1;0;TrialProc;2117;718;Pr8_B;26;1771;1744;ListFischi1;0;;2;203;317286;15;155;2121;319407;217;1;1801;1;643;413;1584;1;1
TMS_Ibrahim;37;3;"<?xml version=""1.0""?>\n<Clock xmlns:dt=""urn:schemas-microsoft-com:datatypes""><Description dt:dt=""string"">E-Prime Primary Realtime Clock</Description><StartTime><Timestamp dt:dt=""int"">0</Timestamp><DateUtc dt:dt=""string"">2022-09-05T10:40:13Z</DateUtc></StartTime><FrequencyChanges><FrequencyChange><Frequency dt:dt=""r8"">3312890</Frequency><Timestamp dt:dt=""r8"">46399333575</Timestamp><Current dt:dt=""r8"">0</Current><DateUtc dt:dt=""string"">2022-09-05T10:40:13Z</DateUtc></FrequencyChange></FrequencyChanges></Clock>\n";TMS_Ibrahim-37-3;75029;100561;1;;-844653256;2010242;2010242;09/05/2022;05/09/2022 10:40;12:40:13;2010147;0;;-999999;45;53081;0;1;2284;55365;1;1;1;2;1;2;1;BlockProcFischi;BlockList;1;25;0;;-999999;32;57982;0;1;1093;59075;1;1;1;1;ProcFischi1;ListBlockFischi;32;1;1;0;0;3;Po4_B;150;2;op;3;2;40;1;32;2;0;TrialProc;2106;1341;Po4_B;265;1449;1715;ListFischi1;0;;2;201;325007;11;13;1472;326479;96;1;1472;1;1941;473;1376;1;1
TMS_Ibrahim;37;3;"<?xml version=""1.0""?>\n<Clock xmlns:dt=""urn:schemas-microsoft-com:datatypes""><Description dt:dt=""string"">E-Prime Primary Realtime Clock</Description><StartTime><Timestamp dt:dt=""int"">0</Timestamp><DateUtc dt:dt=""string"">2022-09-05T10:40:13Z</DateUtc></StartTime><FrequencyChanges><FrequencyChange><Frequency dt:dt=""r8"">3312890</Frequency><Timestamp dt:dt=""r8"">46399333575</Timestamp><Current dt:dt=""r8"">0</Current><DateUtc dt:dt=""string"">2022-09-05T10:40:13Z</DateUtc></FrequencyChange></FrequencyChanges></Clock>\n";TMS_Ibrahim-37-3;75029;100561;1;;-844653256;2010242;2010242;09/05/2022;05/09/2022 10:40;12:40:13;2010147;0;;-999999;45;53081;0;1;2284;55365;1;1;1;2;1;2;1;BlockProcFischi;BlockList;1;25;0;;-999999;32;57982;0;1;1093;59075;1;1;1;1;ProcFischi1;ListBlockFischi;33;1;2;0;0;3;Pr2_B;100;3;ug;3;2;27;1;33;3;1;TrialProc;1403;713;Pr2_B;94;1339;1245;ListFischi1;0;;2;203;333353;9;13;1366;334719;246;1;1366;1;2385;264;1120;1;1
TMS_Ibrahim;37;3;"<?xml version=""1.0""?>\n<Clock xmlns:dt=""urn:schemas-microsoft-com:datatypes""><Description dt:dt=""string"">E-Prime Primary Realtime Clock</Description><StartTime><Timestamp dt:dt=""int"">0</Timestamp><DateUtc dt:dt=""string"">2022-09-05T10:40:13Z</DateUtc></StartTime><FrequencyChanges><FrequencyChange><Frequency dt:dt=""r8"">3312890</Frequency><Timestamp dt:dt=""r8"">46399333575</Timestamp><Current dt:dt=""r8"">0</Current><DateUtc dt:dt=""string"">2022-09-05T10:40:13Z</DateUtc></FrequencyChange></FrequencyChanges></Clock>\n";TMS_Ibrahim-37-3;75029;100561;1;;-844653256;2010242;2010242;09/05/2022;05/09/2022 10:40;12:40:13;2010147;0;;-999999;45;53081;0;1;2284;55365;1;1;1;2;1;2;1;BlockProcFischi;BlockList;1;25;0;;-999999;32;57982;0;1;1093;59075;1;1;1;1;ProcFischi1;ListBlockFischi;34;1;1;0;2;5;Po3_B;150;4;ug;5;2;50;1;34;4;1;TrialProc;3383;1310;Po3_B;144;1721;1576;ListFischi1;0;;2;203;341365;7;15;1753;343118;233;1;1753;1;1166;496;1520;1;1
TMS_Ibrahim;37;3;"<?xml version=""1.0""?>\n<Clock xmlns:dt=""urn:schemas-microsoft-com:datatypes""><Description dt:dt=""string"">E-Prime Primary Realtime Clock</Description><StartTime><Timestamp dt:dt=""int"">0</Timestamp><DateUtc dt:dt=""string"">2022-09-05T10:40:13Z</DateUtc></StartTime><FrequencyChanges><FrequencyChange><Frequency dt:dt=""r8"">3312890</Frequency><Timestamp dt:dt=""r8"">46399333575</Timestamp><Current dt:dt=""r8"">0</Current><DateUtc dt:dt=""string"">2022-09-05T10:40:13Z</DateUtc></FrequencyChange></FrequencyChanges></Clock>\n";TMS_Ibrahim-37-3;75029;100561;1;;-844653256;2010242;2010242;09/05/2022;05/09/2022 10:40;12:40:13;2010147;0;;-999999;45;53081;0;1;2284;55365;1;1;1;2;1;2;1;BlockProcFischi;BlockList;1;25;0;;-999999;32;57982;0;1;1093;59075;1;1;1;1;ProcFischi1;ListBlockFischi;35;1;1;0;2;5;Po3_B;150;4;ug;5;2;60;1;35;4;1;TrialProc;2091;1310;Po3_B;91;1486;1577;ListFischi1;0;;2;203;350240;8;15;1518;351758;174;1;1518;1;2075;321;1344;1;1
TMS_Ibrahim;37;3;"<?xml version=""1.0""?>\n<Clock xmlns:dt=""urn:schemas-microsoft-com:datatypes""><Description dt:dt=""string"">E-Prime Primary Realtime Clock</Description><StartTime><Timestamp dt:dt=""int"">0</Timestamp><DateUtc dt:dt=""string"">2022-09-05T10:40:13Z</DateUtc></StartTime><FrequencyChanges><FrequencyChange><Frequency dt:dt=""r8"">3312890</Frequency><Timestamp dt:dt=""r8"">46399333575</Timestamp><Current dt:dt=""r8"">0</Current><DateUtc dt:dt=""string"">2022-09-05T10:40:13Z</DateUtc></FrequencyChange></FrequencyChanges></Clock>\n";TMS_Ibrahim-37-3;75029;100561;1;;-844653256;2010242;2010242;09/05/2022;05/09/2022 10:40;12:40:13;2010147;0;;-999999;45;53081;0;1;2284;55365;1;1;1;2;1;2;1;BlockProcFischi;BlockList;1;25;0;;-999999;32;57982;0;1;1093;59075;1;1;1;1;ProcFischi1;ListBlockFischi;36;1;2;0;0;3;Pr4_B;100;3;ug;3;2;29;1;36;3;1;TrialProc;973;675;Pr4_B;8;1240;1247;ListFischi1;0;;2;203;358660;12;13;1274;359934;186;1;1274;1;2090;247;1088;1;1
TMS_Ibrahim;37;3;"<?xml version=""1.0""?>\n<Clock xmlns:dt=""urn:schemas-microsoft-com:datatypes""><Description dt:dt=""string"">E-Prime Primary Realtime Clock</Description><StartTime><Timestamp dt:dt=""int"">0</Timestamp><DateUtc dt:dt=""string"">2022-09-05T10:40:13Z</DateUtc></StartTime><FrequencyChanges><FrequencyChange><Frequency dt:dt=""r8"">3312890</Frequency><Timestamp dt:dt=""r8"">46399333575</Timestamp><Current dt:dt=""r8"">0</Current><DateUtc dt:dt=""string"">2022-09-05T10:40:13Z</DateUtc></FrequencyChange></FrequencyChanges></Clock>\n";TMS_Ibrahim-37-3;75029;100561;1;;-844653256;2010242;2010242;09/05/2022;05/09/2022 10:40;12:40:13;2010147;0;;-999999;45;53081;0;1;2284;55365;1;1;1;2;1;2;1;BlockProcFischi;BlockList;1;25;0;;-999999;32;57982;0;1;1093;59075;1;1;1;1;ProcFischi1;ListBlockFischi;37;1;2;0;0;3;Pr5_B;75;3;ug;3;2;20;1;37;3;1;TrialProc;2111;674;Pr5_B;151;1425;1274;ListFischi1;0;;2;203;366951;11;13;1446;368397;88;1;1446;1;2866;299;1358;1;1
