ExperimentName;Subject;Session;Clock.Information;DataFile.Basename;Display.RefreshRate;ExperimentVersion;Group;Name;RandomSeed;RuntimeVersion;RuntimeVersionExpected;SessionDate;SessionStartDateTimeUtc;SessionTime;StudioVersion;SyncEprimeKinB1.ACC;SyncEprimeKinB1.CRESP;SyncEprimeKinB1.DurationError;SyncEprimeKinB1.OnsetDelay;SyncEprimeKinB1.OnsetTime;SyncEprimeKinB1.OnsetToOnsetTime;SyncEprimeKinB1.RESP;SyncEprimeKinB1.RT;SyncEprimeKinB1.RTTime;Block;BlockINT_0Fischi_1Suoni;BlockList;BlockList.Cycle;BlockList.Sample;ContatoreSuoni;NumSuono;Procedure[Block];Running[Block];Suonilist;SuonoFinSoglia;SyncEprimeKinFischi1.ACC;SyncEprimeKinFischi1.CRESP;SyncEprimeKinFischi1.DurationError;SyncEprimeKinFischi1.OnsetDelay;SyncEprimeKinFischi1.OnsetTime;SyncEprimeKinFischi1.OnsetToOnsetTime;SyncEprimeKinFischi1.RESP;SyncEprimeKinFischi1.RT;SyncEprimeKinFischi1.RTTime;Trial;ListBlockFischi;ListBlockFischi.Cycle;ListBlockFischi.Sample;Procedure[Trial];Running[Trial];SubTrial;AccSogg1;Avatar_Giu1_Su2;CatchTrial_CORR;ContatoreFinestraSoglia;CorrectResponse;File_Name;FinestraSoglia;IdcondEEG;Istruzione;KeySoggetto1;KeySoggetto2;ListFischi1;ListFischi1.Cycle;ListFischi1.Sample;NumeroSuono;OP_UG;Procedure[SubTrial];Resoconto.RT;RTChange;RTimage;RTNetto;RTSubj;RTTouch;Running[SubTrial];StartGo.ACC;StartGo.CRESP;StartGo.DurationError;StartGo.OnsetDelay;StartGo.OnsetTime;StartGo.OnsetToOnsetTime;StartGo.RESP;StartGo.RT;StartGo.RTTime;StartSoggetto1;StartSoggetto2;StopSoggetto1;StopSoggetto2;StopTrial.RT;tempo;TMSoggetto1;ValiditaTrial;Vincitore
TMS_Ibrahim;38;2;"<?xml version=""1.0""?>\n<Clock xmlns:dt=""urn:schemas-microsoft-com:datatypes""><Description dt:dt=""string"">E-Prime Primary Realtime Clock</Description><StartTime><Timestamp dt:dt=""int"">0</Timestamp><DateUtc dt:dt=""string"">2022-09-05T14:13:43Z</DateUtc></StartTime><FrequencyChanges><FrequencyChange><Frequency dt:dt=""r8"">3312890</Frequency><Timestamp dt:dt=""r8"">88837651755</Timestamp><Current dt:dt=""r8"">0</Current><DateUtc dt:dt=""string"">2022-09-05T14:13:43Z</DateUtc></FrequencyChange></FrequencyChanges></Clock>\n";TMS_Ibrahim-38-2;75031;100561;1;;-1356022842;2010242;2010242;09/05/2022;05/09/2022 14:13;16:13:44;2010147;0;;-999999;26;23934;0;1;1240;25174;1;1;1;2;1;1;1;BlockProcFischi;BlockList;1;125;0;;-999999;32;29043;0;1;1954;30997;1;1;1;1;ProcFischi1;ListBlockFischi;1;1;1;0;0;5;Po5_B;250;4;ug;5;2;62;1;1;4;1;TrialProc;865;1006;Po5_B;14;1553;1540;ListFischi1;0;;4;210;33654;27;15;1585;35239;497;1;1585;1;1269;421;1088;1;1
TMS_Ibrahim;38;2;"<?xml version=""1.0""?>\n<Clock xmlns:dt=""urn:schemas-microsoft-com:datatypes""><Description dt:dt=""string"">E-Prime Primary Realtime Clock</Description><StartTime><Timestamp dt:dt=""int"">0</Timestamp><DateUtc dt:dt=""string"">2022-09-05T14:13:43Z</DateUtc></StartTime><FrequencyChanges><FrequencyChange><Frequency dt:dt=""r8"">3312890</Frequency><Timestamp dt:dt=""r8"">88837651755</Timestamp><Current dt:dt=""r8"">0</Current><DateUtc dt:dt=""string"">2022-09-05T14:13:43Z</DateUtc></FrequencyChange></FrequencyChanges></Clock>\n";TMS_Ibrahim-38-2;75031;100561;1;;-1356022842;2010242;2010242;09/05/2022;05/09/2022 14:13;16:13:44;2010147;0;;-999999;26;23934;0;1;1240;25174;1;1;1;2;1;1;1;BlockProcFischi;BlockList;1;125;0;;-999999;32;29043;0;1;1954;30997;1;1;1;1;ProcFischi1;ListBlockFischi;2;1;1;0;0;5;Po4_B;225;4;ug;5;2;61;1;2;4;1;TrialProc;938;1340;Po4_B;201;1512;1713;ListFischi1;0;;1;206;41455;9;15;1544;42999;248;1;1544;1;901;206;1296;1;1
TMS_Ibrahim;38;2;"<?xml version=""1.0""?>\n<Clock xmlns:dt=""urn:schemas-microsoft-com:datatypes""><Description dt:dt=""string"">E-Prime Primary Realtime Clock</Description><StartTime><Timestamp dt:dt=""int"">0</Timestamp><DateUtc dt:dt=""string"">2022-09-05T14:13:43Z</DateUtc></StartTime><FrequencyChanges><FrequencyChange><Frequency dt:dt=""r8"">3312890</Frequency><Timestamp dt:dt=""r8"">88837651755</Timestamp><Current dt:dt=""r8"">0</Current><DateUtc dt:dt=""string"">2022-09-05T14:13:43Z</DateUtc></FrequencyChange></FrequencyChanges></Clock>\n";TMS_Ibrahim-38-2;75031;100561;1;;-1356022842;2010242;2010242;09/05/2022;05/09/2022 14:13;16:13:44;2010147;0;;-999999;26;23934;0;1;1240;25174;1;1;1;2;1;1;1;BlockProcFischi;BlockList;1;125;0;;-999999;32;29043;0;1;1954;30997;1;1;1;1;ProcFischi1;ListBlockFischi;3;1;2;0;0;5;Pr4_B;250;1;op;5;2;8;1;3;1;0;TrialProc;1376;676;Pr4_B;227;1476;1248;ListFischi1;0;;2;203;49836;12;15;1498;51334;410;1;1498;1;892;412;1088;1;1
TMS_Ibrahim;38;2;"<?xml version=""1.0""?>\n<Clock xmlns:dt=""urn:schemas-microsoft-com:datatypes""><Description dt:dt=""string"">E-Prime Primary Realtime Clock</Description><StartTime><Timestamp dt:dt=""int"">0</Timestamp><DateUtc dt:dt=""string"">2022-09-05T14:13:43Z</DateUtc></StartTime><FrequencyChanges><FrequencyChange><Frequency dt:dt=""r8"">3312890</Frequency><Timestamp dt:dt=""r8"">88837651755</Timestamp><Current dt:dt=""r8"">0</Current><DateUtc dt:dt=""string"">2022-09-05T14:13:43Z</DateUtc></FrequencyChange></FrequencyChanges></Clock>\n";TMS_Ibrahim-38-2;75031;100561;1;;-1356022842;2010242;2010242;09/05/2022;05/09/2022 14:13;16:13:44;2010147;0;;-999999;26;23934;0;1;1240;25174;1;1;1;2;1;1;1;BlockProcFischi;BlockList;1;125;0;;-999999;32;29043;0;1;1954;30997;1;1;1;1;ProcFischi1;ListBlockFischi;4;1;1;0;0;3;Po5_B;250;2;op;3;2;41;1;4;2;0;TrialProc;1725;981;Po5_B;87;1562;1474;ListFischi1;0;;2;203;57699;12;13;1587;59286;515;1;1587;1;524;224;1072;1;1
TMS_Ibrahim;38;2;"<?xml version=""1.0""?>\n<Clock xmlns:dt=""urn:schemas-microsoft-com:datatypes""><Description dt:dt=""string"">E-Prime Primary Realtime Clock</Description><StartTime><Timestamp dt:dt=""int"">0</Timestamp><DateUtc dt:dt=""string"">2022-09-05T14:13:43Z</DateUtc></StartTime><FrequencyChanges><FrequencyChange><Frequency dt:dt=""r8"">3312890</Frequency><Timestamp dt:dt=""r8"">88837651755</Timestamp><Current dt:dt=""r8"">0</Current><DateUtc dt:dt=""string"">2022-09-05T14:13:43Z</DateUtc></FrequencyChange></FrequencyChanges></Clock>\n";TMS_Ibrahim-38-2;75031;100561;1;;-1356022842;2010242;2010242;09/05/2022;05/09/2022 14:13;16:13:44;2010147;0;;-999999;26;23934;0;1;1240;25174;1;1;1;2;1;1;1;BlockProcFischi;BlockList;1;125;0;;-999999;32;29043;0;1;1954;30997;1;1;1;1;ProcFischi1;ListBlockFischi;5;1;1;0;0;3;Po4_B;225;2;op;3;2;45;1;5;2;0;TrialProc;1311;1339;Po4_B;190;1521;1712;ListFischi1;0;;2;201;65525;10;13;1553;67078;497;1;1553;1;816;304;1056;1;1
TMS_Ibrahim;38;2;"<?xml version=""1.0""?>\n<Clock xmlns:dt=""urn:schemas-microsoft-com:datatypes""><Description dt:dt=""string"">E-Prime Primary Realtime Clock</Description><StartTime><Timestamp dt:dt=""int"">0</Timestamp><DateUtc dt:dt=""string"">2022-09-05T14:13:43Z</DateUtc></StartTime><FrequencyChanges><FrequencyChange><Frequency dt:dt=""r8"">3312890</Frequency><Timestamp dt:dt=""r8"">88837651755</Timestamp><Current dt:dt=""r8"">0</Current><DateUtc dt:dt=""string"">2022-09-05T14:13:43Z</DateUtc></FrequencyChange></FrequencyChanges></Clock>\n";TMS_Ibrahim-38-2;75031;100561;1;;-1356022842;2010242;2010242;09/05/2022;05/09/2022 14:13;16:13:44;2010147;0;;-999999;26;23934;0;1;1240;25174;1;1;1;2;1;1;1;BlockProcFischi;BlockList;1;125;0;;-999999;32;29043;0;1;1954;30997;1;1;1;1;ProcFischi1;ListBlockFischi;6;1;1;0;0;5;Po5_B;225;4;ug;5;2;52;1;6;4;1;TrialProc;1745;986;Po5_B;149;1628;1478;ListFischi1;0;;2;203;74142;16;15;1655;75797;423;1;1655;1;895;598;1232;1;1
TMS_Ibrahim;38;2;"<?xml version=""1.0""?>\n<Clock xmlns:dt=""urn:schemas-microsoft-com:datatypes""><Description dt:dt=""string"">E-Prime Primary Realtime Clock</Description><StartTime><Timestamp dt:dt=""int"">0</Timestamp><DateUtc dt:dt=""string"">2022-09-05T14:13:43Z</DateUtc></StartTime><FrequencyChanges><FrequencyChange><Frequency dt:dt=""r8"">3312890</Frequency><Timestamp dt:dt=""r8"">88837651755</Timestamp><Current dt:dt=""r8"">0</Current><DateUtc dt:dt=""string"">2022-09-05T14:13:43Z</DateUtc></FrequencyChange></FrequencyChanges></Clock>\n";TMS_Ibrahim-38-2;75031;100561;1;;-1356022842;2010242;2010242;09/05/2022;05/09/2022 14:13;16:13:44;2010147;0;;-999999;26;23934;0;1;1240;25174;1;1;1;2;1;1;1;BlockProcFischi;BlockList;1;125;0;;-999999;32;29043;0;1;1954;30997;1;1;1;1;ProcFischi1;ListBlockFischi;7;1;2;0;0;5;Pr3_B;250;1;op;5;2;7;1;7;1;0;TrialProc;743;712;Pr3_B;49;1761;1712;ListFischi1;0;;2;201;81519;9;15;1782;83301;790;1;1782;1;650;343;992;1;1
TMS_Ibrahim;38;2;"<?xml version=""1.0""?>\n<Clock xmlns:dt=""urn:schemas-microsoft-com:datatypes""><Description dt:dt=""string"">E-Prime Primary Realtime Clock</Description><StartTime><Timestamp dt:dt=""int"">0</Timestamp><DateUtc dt:dt=""string"">2022-09-05T14:13:43Z</DateUtc></StartTime><FrequencyChanges><FrequencyChange><Frequency dt:dt=""r8"">3312890</Frequency><Timestamp dt:dt=""r8"">88837651755</Timestamp><Current dt:dt=""r8"">0</Current><DateUtc dt:dt=""string"">2022-09-05T14:13:43Z</DateUtc></FrequencyChange></FrequencyChanges></Clock>\n";TMS_Ibrahim-38-2;75031;100561;1;;-1356022842;2010242;2010242;09/05/2022;05/09/2022 14:13;16:13:44;2010147;0;;-999999;26;23934;0;1;1240;25174;1;1;1;2;1;1;1;BlockProcFischi;BlockList;1;125;0;;-999999;32;29043;0;1;1954;30997;1;1;1;1;ProcFischi1;ListBlockFischi;8;1;1;1;0;3;Pomod_B;200;2;op;3;2;48;1;8;2;0;TrialProc;1781;1315;Pomod_B;143;1816;1674;ListFischi1;0;;2;203;89353;12;133;2140;91493;588;1;1852;1;583;553;1264;1;1
TMS_Ibrahim;38;2;"<?xml version=""1.0""?>\n<Clock xmlns:dt=""urn:schemas-microsoft-com:datatypes""><Description dt:dt=""string"">E-Prime Primary Realtime Clock</Description><StartTime><Timestamp dt:dt=""int"">0</Timestamp><DateUtc dt:dt=""string"">2022-09-05T14:13:43Z</DateUtc></StartTime><FrequencyChanges><FrequencyChange><Frequency dt:dt=""r8"">3312890</Frequency><Timestamp dt:dt=""r8"">88837651755</Timestamp><Current dt:dt=""r8"">0</Current><DateUtc dt:dt=""string"">2022-09-05T14:13:43Z</DateUtc></FrequencyChange></FrequencyChanges></Clock>\n";TMS_Ibrahim-38-2;75031;100561;1;;-1356022842;2010242;2010242;09/05/2022;05/09/2022 14:13;16:13:44;2010147;0;;-999999;26;23934;0;1;1240;25174;1;1;1;2;1;1;1;BlockProcFischi;BlockList;1;125;0;;-999999;32;29043;0;1;1954;30997;1;1;1;1;ProcFischi1;ListBlockFischi;9;1;2;0;0;3;Pr5_B;250;3;ug;3;2;30;1;9;3;1;TrialProc;2040;680;Pr5_B;276;1555;1280;ListFischi1;0;;2;201;97025;17;13;1587;98612;531;1;1587;1;688;327;1056;1;1
TMS_Ibrahim;38;2;"<?xml version=""1.0""?>\n<Clock xmlns:dt=""urn:schemas-microsoft-com:datatypes""><Description dt:dt=""string"">E-Prime Primary Realtime Clock</Description><StartTime><Timestamp dt:dt=""int"">0</Timestamp><DateUtc dt:dt=""string"">2022-09-05T14:13:43Z</DateUtc></StartTime><FrequencyChanges><FrequencyChange><Frequency dt:dt=""r8"">3312890</Frequency><Timestamp dt:dt=""r8"">88837651755</Timestamp><Current dt:dt=""r8"">0</Current><DateUtc dt:dt=""string"">2022-09-05T14:13:43Z</DateUtc></FrequencyChange></FrequencyChanges></Clock>\n";TMS_Ibrahim-38-2;75031;100561;1;;-1356022842;2010242;2010242;09/05/2022;05/09/2022 14:13;16:13:44;2010147;0;;-999999;26;23934;0;1;1240;25174;1;1;1;2;1;1;1;BlockProcFischi;BlockList;1;125;0;;-999999;32;29043;0;1;1954;30997;1;1;1;1;ProcFischi1;ListBlockFischi;10;1;2;0;0;5;Pr5_B;225;1;op;5;2;4;1;10;1;0;TrialProc;2148;678;Pr5_B;390;1668;1278;ListFischi1;0;;2;203;104597;16;15;1695;106292;479;1;1695;1;1278;416;1216;1;1
TMS_Ibrahim;38;2;"<?xml version=""1.0""?>\n<Clock xmlns:dt=""urn:schemas-microsoft-com:datatypes""><Description dt:dt=""string"">E-Prime Primary Realtime Clock</Description><StartTime><Timestamp dt:dt=""int"">0</Timestamp><DateUtc dt:dt=""string"">2022-09-05T14:13:43Z</DateUtc></StartTime><FrequencyChanges><FrequencyChange><Frequency dt:dt=""r8"">3312890</Frequency><Timestamp dt:dt=""r8"">88837651755</Timestamp><Current dt:dt=""r8"">0</Current><DateUtc dt:dt=""string"">2022-09-05T14:13:43Z</DateUtc></FrequencyChange></FrequencyChanges></Clock>\n";TMS_Ibrahim-38-2;75031;100561;1;;-1356022842;2010242;2010242;09/05/2022;05/09/2022 14:13;16:13:44;2010147;0;;-999999;26;23934;0;1;1240;25174;1;1;1;2;1;1;1;BlockProcFischi;BlockList;1;125;0;;-999999;32;29043;0;1;1954;30997;1;1;1;1;ProcFischi1;ListBlockFischi;11;1;2;1;1;3;Prmod_B;250;3;ug;3;2;31;1;11;3;1;TrialProc;2659;1319;Prmod_B;32;1621;1652;ListFischi1;0;;2;203;112580;16;13;1648;114228;496;1;1648;1;756;479;1152;1;1
TMS_Ibrahim;38;2;"<?xml version=""1.0""?>\n<Clock xmlns:dt=""urn:schemas-microsoft-com:datatypes""><Description dt:dt=""string"">E-Prime Primary Realtime Clock</Description><StartTime><Timestamp dt:dt=""int"">0</Timestamp><DateUtc dt:dt=""string"">2022-09-05T14:13:43Z</DateUtc></StartTime><FrequencyChanges><FrequencyChange><Frequency dt:dt=""r8"">3312890</Frequency><Timestamp dt:dt=""r8"">88837651755</Timestamp><Current dt:dt=""r8"">0</Current><DateUtc dt:dt=""string"">2022-09-05T14:13:43Z</DateUtc></FrequencyChange></FrequencyChanges></Clock>\n";TMS_Ibrahim-38-2;75031;100561;1;;-1356022842;2010242;2010242;09/05/2022;05/09/2022 14:13;16:13:44;2010147;0;;-999999;26;23934;0;1;1240;25174;1;1;1;2;1;1;1;BlockProcFischi;BlockList;1;125;0;;-999999;32;29043;0;1;1954;30997;1;1;1;1;ProcFischi1;ListBlockFischi;12;1;2;0;0;3;Pr3_B;225;3;ug;3;2;18;1;12;3;1;TrialProc;1526;708;Pr3_B;119;1826;1708;ListFischi1;0;;2;203;120734;6;13;1861;122595;709;1;1861;1;374;291;1152;1;1
TMS_Ibrahim;38;2;"<?xml version=""1.0""?>\n<Clock xmlns:dt=""urn:schemas-microsoft-com:datatypes""><Description dt:dt=""string"">E-Prime Primary Realtime Clock</Description><StartTime><Timestamp dt:dt=""int"">0</Timestamp><DateUtc dt:dt=""string"">2022-09-05T14:13:43Z</DateUtc></StartTime><FrequencyChanges><FrequencyChange><Frequency dt:dt=""r8"">3312890</Frequency><Timestamp dt:dt=""r8"">88837651755</Timestamp><Current dt:dt=""r8"">0</Current><DateUtc dt:dt=""string"">2022-09-05T14:13:43Z</DateUtc></FrequencyChange></FrequencyChanges></Clock>\n";TMS_Ibrahim-38-2;75031;100561;1;;-1356022842;2010242;2010242;09/05/2022;05/09/2022 14:13;16:13:44;2010147;0;;-999999;26;23934;0;1;1240;25174;1;1;1;2;1;1;1;BlockProcFischi;BlockList;1;125;0;;-999999;32;29043;0;1;1954;30997;1;1;1;1;ProcFischi1;ListBlockFischi;13;1;1;0;0;5;Po4_B;200;4;ug;5;2;56;1;13;4;1;TrialProc;1880;1342;Po4_B;81;1633;1714;ListFischi1;0;;2;203;129364;12;15;1663;131027;303;1;1663;1;508;203;1360;1;1
TMS_Ibrahim;38;2;"<?xml version=""1.0""?>\n<Clock xmlns:dt=""urn:schemas-microsoft-com:datatypes""><Description dt:dt=""string"">E-Prime Primary Realtime Clock</Description><StartTime><Timestamp dt:dt=""int"">0</Timestamp><DateUtc dt:dt=""string"">2022-09-05T14:13:43Z</DateUtc></StartTime><FrequencyChanges><FrequencyChange><Frequency dt:dt=""r8"">3312890</Frequency><Timestamp dt:dt=""r8"">88837651755</Timestamp><Current dt:dt=""r8"">0</Current><DateUtc dt:dt=""string"">2022-09-05T14:13:43Z</DateUtc></FrequencyChange></FrequencyChanges></Clock>\n";TMS_Ibrahim-38-2;75031;100561;1;;-1356022842;2010242;2010242;09/05/2022;05/09/2022 14:13;16:13:44;2010147;0;;-999999;26;23934;0;1;1240;25174;1;1;1;2;1;1;1;BlockProcFischi;BlockList;1;125;0;;-999999;32;29043;0;1;1954;30997;1;1;1;1;ProcFischi1;ListBlockFischi;14;1;2;0;1;5;Pr5_B;225;1;op;5;2;14;1;14;1;0;TrialProc;1444;667;Pr5_B;184;1492;1307;ListFischi1;0;;2;203;137820;7;155;2391;140211;487;1;1527;1;919;259;1040;1;1
TMS_Ibrahim;38;2;"<?xml version=""1.0""?>\n<Clock xmlns:dt=""urn:schemas-microsoft-com:datatypes""><Description dt:dt=""string"">E-Prime Primary Realtime Clock</Description><StartTime><Timestamp dt:dt=""int"">0</Timestamp><DateUtc dt:dt=""string"">2022-09-05T14:13:43Z</DateUtc></StartTime><FrequencyChanges><FrequencyChange><Frequency dt:dt=""r8"">3312890</Frequency><Timestamp dt:dt=""r8"">88837651755</Timestamp><Current dt:dt=""r8"">0</Current><DateUtc dt:dt=""string"">2022-09-05T14:13:43Z</DateUtc></FrequencyChange></FrequencyChanges></Clock>\n";TMS_Ibrahim-38-2;75031;100561;1;;-1356022842;2010242;2010242;09/05/2022;05/09/2022 14:13;16:13:44;2010147;0;;-999999;26;23934;0;1;1240;25174;1;1;1;2;1;1;1;BlockProcFischi;BlockList;1;125;0;;-999999;32;29043;0;1;1954;30997;1;1;1;1;ProcFischi1;ListBlockFischi;15;1;2;0;0;3;Pr2_B;200;3;ug;3;2;27;1;15;3;1;TrialProc;2220;716;Pr2_B;275;1523;1249;ListFischi1;0;;2;201;145051;12;133;2151;147202;344;1;1544;1;1067;455;1200;1;1
TMS_Ibrahim;38;2;"<?xml version=""1.0""?>\n<Clock xmlns:dt=""urn:schemas-microsoft-com:datatypes""><Description dt:dt=""string"">E-Prime Primary Realtime Clock</Description><StartTime><Timestamp dt:dt=""int"">0</Timestamp><DateUtc dt:dt=""string"">2022-09-05T14:13:43Z</DateUtc></StartTime><FrequencyChanges><FrequencyChange><Frequency dt:dt=""r8"">3312890</Frequency><Timestamp dt:dt=""r8"">88837651755</Timestamp><Current dt:dt=""r8"">0</Current><DateUtc dt:dt=""string"">2022-09-05T14:13:43Z</DateUtc></FrequencyChange></FrequencyChanges></Clock>\n";TMS_Ibrahim-38-2;75031;100561;1;;-1356022842;2010242;2010242;09/05/2022;05/09/2022 14:13;16:13:44;2010147;0;;-999999;26;23934;0;1;1240;25174;1;1;1;2;1;1;1;BlockProcFischi;BlockList;1;125;0;;-999999;32;29043;0;1;1954;30997;1;1;1;1;ProcFischi1;ListBlockFischi;16;1;2;1;0;5;Prmod_B;200;1;op;5;2;15;1;16;1;0;TrialProc;2633;1316;Prmod_B;366;2015;1648;ListFischi1;0;;2;203;154394;12;15;2040;156434;504;1;2040;1;1289;324;1536;1;1
TMS_Ibrahim;38;2;"<?xml version=""1.0""?>\n<Clock xmlns:dt=""urn:schemas-microsoft-com:datatypes""><Description dt:dt=""string"">E-Prime Primary Realtime Clock</Description><StartTime><Timestamp dt:dt=""int"">0</Timestamp><DateUtc dt:dt=""string"">2022-09-05T14:13:43Z</DateUtc></StartTime><FrequencyChanges><FrequencyChange><Frequency dt:dt=""r8"">3312890</Frequency><Timestamp dt:dt=""r8"">88837651755</Timestamp><Current dt:dt=""r8"">0</Current><DateUtc dt:dt=""string"">2022-09-05T14:13:43Z</DateUtc></FrequencyChange></FrequencyChanges></Clock>\n";TMS_Ibrahim-38-2;75031;100561;1;;-1356022842;2010242;2010242;09/05/2022;05/09/2022 14:13;16:13:44;2010147;0;;-999999;26;23934;0;1;1240;25174;1;1;1;2;1;1;1;BlockProcFischi;BlockList;1;125;0;;-999999;32;29043;0;1;1954;30997;1;1;1;1;ProcFischi1;ListBlockFischi;17;1;1;1;0;3;Pomod_B;175;2;op;3;2;47;1;17;2;0;TrialProc;2665;1315;Pomod_B;175;1850;1675;ListFischi1;0;;2;203;162684;12;13;1878;164562;311;1;1878;1;808;255;1567;1;1
TMS_Ibrahim;38;2;"<?xml version=""1.0""?>\n<Clock xmlns:dt=""urn:schemas-microsoft-com:datatypes""><Description dt:dt=""string"">E-Prime Primary Realtime Clock</Description><StartTime><Timestamp dt:dt=""int"">0</Timestamp><DateUtc dt:dt=""string"">2022-09-05T14:13:43Z</DateUtc></StartTime><FrequencyChanges><FrequencyChange><Frequency dt:dt=""r8"">3312890</Frequency><Timestamp dt:dt=""r8"">88837651755</Timestamp><Current dt:dt=""r8"">0</Current><DateUtc dt:dt=""string"">2022-09-05T14:13:43Z</DateUtc></FrequencyChange></FrequencyChanges></Clock>\n";TMS_Ibrahim-38-2;75031;100561;1;;-1356022842;2010242;2010242;09/05/2022;05/09/2022 14:13;16:13:44;2010147;0;;-999999;26;23934;0;1;1240;25174;1;1;1;2;1;1;1;BlockProcFischi;BlockList;1;125;0;;-999999;32;29043;0;1;1954;30997;1;1;1;1;ProcFischi1;ListBlockFischi;18;1;2;0;1;3;Pr4_B;200;3;ug;3;2;29;1;18;3;1;TrialProc;2773;671;Pr4_B;115;1359;1244;ListFischi1;0;;2;203;171605;8;13;1388;172993;477;1;1388;1;875;287;911;1;1
TMS_Ibrahim;38;2;"<?xml version=""1.0""?>\n<Clock xmlns:dt=""urn:schemas-microsoft-com:datatypes""><Description dt:dt=""string"">E-Prime Primary Realtime Clock</Description><StartTime><Timestamp dt:dt=""int"">0</Timestamp><DateUtc dt:dt=""string"">2022-09-05T14:13:43Z</DateUtc></StartTime><FrequencyChanges><FrequencyChange><Frequency dt:dt=""r8"">3312890</Frequency><Timestamp dt:dt=""r8"">88837651755</Timestamp><Current dt:dt=""r8"">0</Current><DateUtc dt:dt=""string"">2022-09-05T14:13:43Z</DateUtc></FrequencyChange></FrequencyChanges></Clock>\n";TMS_Ibrahim-38-2;75031;100561;1;;-1356022842;2010242;2010242;09/05/2022;05/09/2022 14:13;16:13:44;2010147;0;;-999999;26;23934;0;1;1240;25174;1;1;1;2;1;1;1;BlockProcFischi;BlockList;1;125;0;;-999999;32;29043;0;1;1954;30997;1;1;1;1;ProcFischi1;ListBlockFischi;19;1;2;0;0;3;Pr3_B;175;3;ug;3;2;28;1;19;3;1;TrialProc;1179;708;Pr3_B;9;1717;1708;ListFischi1;0;;2;201;178711;6;13;1738;180449;347;1;1738;1;2067;599;1391;1;1
TMS_Ibrahim;38;2;"<?xml version=""1.0""?>\n<Clock xmlns:dt=""urn:schemas-microsoft-com:datatypes""><Description dt:dt=""string"">E-Prime Primary Realtime Clock</Description><StartTime><Timestamp dt:dt=""int"">0</Timestamp><DateUtc dt:dt=""string"">2022-09-05T14:13:43Z</DateUtc></StartTime><FrequencyChanges><FrequencyChange><Frequency dt:dt=""r8"">3312890</Frequency><Timestamp dt:dt=""r8"">88837651755</Timestamp><Current dt:dt=""r8"">0</Current><DateUtc dt:dt=""string"">2022-09-05T14:13:43Z</DateUtc></FrequencyChange></FrequencyChanges></Clock>\n";TMS_Ibrahim-38-2;75031;100561;1;;-1356022842;2010242;2010242;09/05/2022;05/09/2022 14:13;16:13:44;2010147;0;;-999999;26;23934;0;1;1240;25174;1;1;1;2;1;1;1;BlockProcFischi;BlockList;1;125;0;;-999999;32;29043;0;1;1954;30997;1;1;1;1;ProcFischi1;ListBlockFischi;20;1;1;0;0;5;Po3_B;175;4;ug;5;2;50;1;20;4;1;TrialProc;1776;1328;Po3_B;14;1610;1596;ListFischi1;0;;5;210;189790;16;15;1635;191425;467;1;1635;1;624;293;1168;1;1
TMS_Ibrahim;38;2;"<?xml version=""1.0""?>\n<Clock xmlns:dt=""urn:schemas-microsoft-com:datatypes""><Description dt:dt=""string"">E-Prime Primary Realtime Clock</Description><StartTime><Timestamp dt:dt=""int"">0</Timestamp><DateUtc dt:dt=""string"">2022-09-05T14:13:43Z</DateUtc></StartTime><FrequencyChanges><FrequencyChange><Frequency dt:dt=""r8"">3312890</Frequency><Timestamp dt:dt=""r8"">88837651755</Timestamp><Current dt:dt=""r8"">0</Current><DateUtc dt:dt=""string"">2022-09-05T14:13:43Z</DateUtc></FrequencyChange></FrequencyChanges></Clock>\n";TMS_Ibrahim-38-2;75031;100561;1;;-1356022842;2010242;2010242;09/05/2022;05/09/2022 14:13;16:13:44;2010147;0;;-999999;26;23934;0;1;1240;25174;1;1;1;2;1;1;1;BlockProcFischi;BlockList;1;125;0;;-999999;32;29043;0;1;1954;30997;1;1;1;1;ProcFischi1;ListBlockFischi;21;1;2;0;1;5;Pr2_B;200;1;op;5;2;6;1;21;1;0;TrialProc;2506;718;Pr2_B;214;1464;1251;ListFischi1;0;;2;201;197375;14;15;1490;198865;419;1;1490;1;611;453;1071;1;1
TMS_Ibrahim;38;2;"<?xml version=""1.0""?>\n<Clock xmlns:dt=""urn:schemas-microsoft-com:datatypes""><Description dt:dt=""string"">E-Prime Primary Realtime Clock</Description><StartTime><Timestamp dt:dt=""int"">0</Timestamp><DateUtc dt:dt=""string"">2022-09-05T14:13:43Z</DateUtc></StartTime><FrequencyChanges><FrequencyChange><Frequency dt:dt=""r8"">3312890</Frequency><Timestamp dt:dt=""r8"">88837651755</Timestamp><Current dt:dt=""r8"">0</Current><DateUtc dt:dt=""string"">2022-09-05T14:13:43Z</DateUtc></FrequencyChange></FrequencyChanges></Clock>\n";TMS_Ibrahim-38-2;75031;100561;1;;-1356022842;2010242;2010242;09/05/2022;05/09/2022 14:13;16:13:44;2010147;0;;-999999;26;23934;0;1;1240;25174;1;1;1;2;1;1;1;BlockProcFischi;BlockList;1;125;0;;-999999;32;29043;0;1;1954;30997;1;1;1;1;ProcFischi1;ListBlockFischi;22;1;2;0;1;5;Pr2_B;200;1;op;5;2;1;1;22;1;0;TrialProc;2027;713;Pr2_B;162;1410;1248;ListFischi1;0;;2;203;205507;12;15;1437;206944;397;1;1437;1;681;330;1040;1;1
TMS_Ibrahim;38;2;"<?xml version=""1.0""?>\n<Clock xmlns:dt=""urn:schemas-microsoft-com:datatypes""><Description dt:dt=""string"">E-Prime Primary Realtime Clock</Description><StartTime><Timestamp dt:dt=""int"">0</Timestamp><DateUtc dt:dt=""string"">2022-09-05T14:13:43Z</DateUtc></StartTime><FrequencyChanges><FrequencyChange><Frequency dt:dt=""r8"">3312890</Frequency><Timestamp dt:dt=""r8"">88837651755</Timestamp><Current dt:dt=""r8"">0</Current><DateUtc dt:dt=""string"">2022-09-05T14:13:43Z</DateUtc></FrequencyChange></FrequencyChanges></Clock>\n";TMS_Ibrahim-38-2;75031;100561;1;;-1356022842;2010242;2010242;09/05/2022;05/09/2022 14:13;16:13:44;2010147;0;;-999999;26;23934;0;1;1240;25174;1;1;1;2;1;1;1;BlockProcFischi;BlockList;1;125;0;;-999999;32;29043;0;1;1954;30997;1;1;1;1;ProcFischi1;ListBlockFischi;23;1;2;0;0;5;Pr5_B;175;1;op;5;2;9;1;23;1;0;TrialProc;2440;675;Pr5_B;271;1544;1274;ListFischi1;0;;2;203;214251;12;15;1573;215824;469;1;1573;1;840;565;1104;1;1
TMS_Ibrahim;38;2;"<?xml version=""1.0""?>\n<Clock xmlns:dt=""urn:schemas-microsoft-com:datatypes""><Description dt:dt=""string"">E-Prime Primary Realtime Clock</Description><StartTime><Timestamp dt:dt=""int"">0</Timestamp><DateUtc dt:dt=""string"">2022-09-05T14:13:43Z</DateUtc></StartTime><FrequencyChanges><FrequencyChange><Frequency dt:dt=""r8"">3312890</Frequency><Timestamp dt:dt=""r8"">88837651755</Timestamp><Current dt:dt=""r8"">0</Current><DateUtc dt:dt=""string"">2022-09-05T14:13:43Z</DateUtc></FrequencyChange></FrequencyChanges></Clock>\n";TMS_Ibrahim-38-2;75031;100561;1;;-1356022842;2010242;2010242;09/05/2022;05/09/2022 14:13;16:13:44;2010147;0;;-999999;26;23934;0;1;1240;25174;1;1;1;2;1;1;1;BlockProcFischi;BlockList;1;125;0;;-999999;32;29043;0;1;1954;30997;1;1;1;1;ProcFischi1;ListBlockFischi;24;1;2;0;0;3;Pr5_B;150;3;ug;3;2;25;1;24;3;1;TrialProc;2916;674;Pr5_B;211;1484;1273;ListFischi1;0;;2;203;222822;11;13;1514;224336;490;1;1514;1;686;351;1024;1;1
TMS_Ibrahim;38;2;"<?xml version=""1.0""?>\n<Clock xmlns:dt=""urn:schemas-microsoft-com:datatypes""><Description dt:dt=""string"">E-Prime Primary Realtime Clock</Description><StartTime><Timestamp dt:dt=""int"">0</Timestamp><DateUtc dt:dt=""string"">2022-09-05T14:13:43Z</DateUtc></StartTime><FrequencyChanges><FrequencyChange><Frequency dt:dt=""r8"">3312890</Frequency><Timestamp dt:dt=""r8"">88837651755</Timestamp><Current dt:dt=""r8"">0</Current><DateUtc dt:dt=""string"">2022-09-05T14:13:43Z</DateUtc></FrequencyChange></FrequencyChanges></Clock>\n";TMS_Ibrahim-38-2;75031;100561;1;;-1356022842;2010242;2010242;09/05/2022;05/09/2022 14:13;16:13:44;2010147;0;;-999999;26;23934;0;1;1240;25174;1;1;1;2;1;1;1;BlockProcFischi;BlockList;1;125;0;;-999999;32;29043;0;1;1954;30997;1;1;1;1;ProcFischi1;ListBlockFischi;25;1;1;0;0;5;Po3_B;150;4;ug;5;2;55;1;25;4;1;TrialProc;1746;1310;Po3_B;161;1416;1577;ListFischi1;0;;2;203;231328;8;15;1439;232767;304;1;1439;1;1111;455;1135;1;1
TMS_Ibrahim;38;2;"<?xml version=""1.0""?>\n<Clock xmlns:dt=""urn:schemas-microsoft-com:datatypes""><Description dt:dt=""string"">E-Prime Primary Realtime Clock</Description><StartTime><Timestamp dt:dt=""int"">0</Timestamp><DateUtc dt:dt=""string"">2022-09-05T14:13:43Z</DateUtc></StartTime><FrequencyChanges><FrequencyChange><Frequency dt:dt=""r8"">3312890</Frequency><Timestamp dt:dt=""r8"">88837651755</Timestamp><Current dt:dt=""r8"">0</Current><DateUtc dt:dt=""string"">2022-09-05T14:13:43Z</DateUtc></FrequencyChange></FrequencyChanges></Clock>\n";TMS_Ibrahim-38-2;75031;100561;1;;-1356022842;2010242;2010242;09/05/2022;05/09/2022 14:13;16:13:44;2010147;0;;-999999;26;23934;0;1;1240;25174;1;1;1;2;1;1;1;BlockProcFischi;BlockList;1;125;0;;-999999;32;29043;0;1;1954;30997;1;1;1;1;ProcFischi1;ListBlockFischi;26;1;1;0;0;5;Po4_B;150;4;ug;5;2;51;1;26;4;1;TrialProc;2864;1345;Po4_B;161;1558;1719;ListFischi1;0;;2;201;238797;16;15;1586;240383;418;1;1586;1;959;278;1168;1;1
TMS_Ibrahim;38;2;"<?xml version=""1.0""?>\n<Clock xmlns:dt=""urn:schemas-microsoft-com:datatypes""><Description dt:dt=""string"">E-Prime Primary Realtime Clock</Description><StartTime><Timestamp dt:dt=""int"">0</Timestamp><DateUtc dt:dt=""string"">2022-09-05T14:13:43Z</DateUtc></StartTime><FrequencyChanges><FrequencyChange><Frequency dt:dt=""r8"">3312890</Frequency><Timestamp dt:dt=""r8"">88837651755</Timestamp><Current dt:dt=""r8"">0</Current><DateUtc dt:dt=""string"">2022-09-05T14:13:43Z</DateUtc></FrequencyChange></FrequencyChanges></Clock>\n";TMS_Ibrahim-38-2;75031;100561;1;;-1356022842;2010242;2010242;09/05/2022;05/09/2022 14:13;16:13:44;2010147;0;;-999999;26;23934;0;1;1240;25174;1;1;1;2;1;1;1;BlockProcFischi;BlockList;1;125;0;;-999999;32;29043;0;1;1954;30997;1;1;1;1;ProcFischi1;ListBlockFischi;27;1;2;0;1;3;Pr4_B;150;3;ug;3;2;24;1;27;3;1;TrialProc;1878;671;Pr4_B;102;1344;1243;ListFischi1;0;;2;203;246909;7;133;2322;249231;386;1;1378;1;1473;487;992;1;1
TMS_Ibrahim;38;2;"<?xml version=""1.0""?>\n<Clock xmlns:dt=""urn:schemas-microsoft-com:datatypes""><Description dt:dt=""string"">E-Prime Primary Realtime Clock</Description><StartTime><Timestamp dt:dt=""int"">0</Timestamp><DateUtc dt:dt=""string"">2022-09-05T14:13:43Z</DateUtc></StartTime><FrequencyChanges><FrequencyChange><Frequency dt:dt=""r8"">3312890</Frequency><Timestamp dt:dt=""r8"">88837651755</Timestamp><Current dt:dt=""r8"">0</Current><DateUtc dt:dt=""string"">2022-09-05T14:13:43Z</DateUtc></FrequencyChange></FrequencyChanges></Clock>\n";TMS_Ibrahim-38-2;75031;100561;1;;-1356022842;2010242;2010242;09/05/2022;05/09/2022 14:13;16:13:44;2010147;0;;-999999;26;23934;0;1;1240;25174;1;1;1;2;1;1;1;BlockProcFischi;BlockList;1;125;0;;-999999;32;29043;0;1;1954;30997;1;1;1;1;ProcFischi1;ListBlockFischi;28;1;2;0;1;5;Pr4_B;175;1;op;5;2;13;1;28;1;0;TrialProc;2663;670;Pr4_B;109;1353;1244;ListFischi1;0;;2;201;254333;7;15;1377;255710;481;1;1377;1;1277;310;896;1;1
TMS_Ibrahim;38;2;"<?xml version=""1.0""?>\n<Clock xmlns:dt=""urn:schemas-microsoft-com:datatypes""><Description dt:dt=""string"">E-Prime Primary Realtime Clock</Description><StartTime><Timestamp dt:dt=""int"">0</Timestamp><DateUtc dt:dt=""string"">2022-09-05T14:13:43Z</DateUtc></StartTime><FrequencyChanges><FrequencyChange><Frequency dt:dt=""r8"">3312890</Frequency><Timestamp dt:dt=""r8"">88837651755</Timestamp><Current dt:dt=""r8"">0</Current><DateUtc dt:dt=""string"">2022-09-05T14:13:43Z</DateUtc></FrequencyChange></FrequencyChanges></Clock>\n";TMS_Ibrahim-38-2;75031;100561;1;;-1356022842;2010242;2010242;09/05/2022;05/09/2022 14:13;16:13:44;2010147;0;;-999999;26;23934;0;1;1240;25174;1;1;1;2;1;1;1;BlockProcFischi;BlockList;1;125;0;;-999999;32;29043;0;1;1954;30997;1;1;1;1;ProcFischi1;ListBlockFischi;29;1;1;0;0;3;Po8_B;175;2;op;3;2;42;1;29;2;0;TrialProc;1504;1250;Po8_B;81;1664;1582;ListFischi1;0;;2;203;262550;14;13;1688;264238;696;1;1688;1;1619;258;992;1;1
TMS_Ibrahim;38;2;"<?xml version=""1.0""?>\n<Clock xmlns:dt=""urn:schemas-microsoft-com:datatypes""><Description dt:dt=""string"">E-Prime Primary Realtime Clock</Description><StartTime><Timestamp dt:dt=""int"">0</Timestamp><DateUtc dt:dt=""string"">2022-09-05T14:13:43Z</DateUtc></StartTime><FrequencyChanges><FrequencyChange><Frequency dt:dt=""r8"">3312890</Frequency><Timestamp dt:dt=""r8"">88837651755</Timestamp><Current dt:dt=""r8"">0</Current><DateUtc dt:dt=""string"">2022-09-05T14:13:43Z</DateUtc></FrequencyChange></FrequencyChanges></Clock>\n";TMS_Ibrahim-38-2;75031;100561;1;;-1356022842;2010242;2010242;09/05/2022;05/09/2022 14:13;16:13:44;2010147;0;;-999999;26;23934;0;1;1240;25174;1;1;1;2;1;1;1;BlockProcFischi;BlockList;1;125;0;;-999999;32;29043;0;1;1954;30997;1;1;1;1;ProcFischi1;ListBlockFischi;30;1;2;0;0;3;Pr8_B;125;3;ug;3;2;21;1;30;3;1;TrialProc;1477;717;Pr8_B;27;1772;1744;ListFischi1;0;;2;201;269627;14;1333;2307;271934;387;1;1795;1;1657;296;1408;1;1
TMS_Ibrahim;38;2;"<?xml version=""1.0""?>\n<Clock xmlns:dt=""urn:schemas-microsoft-com:datatypes""><Description dt:dt=""string"">E-Prime Primary Realtime Clock</Description><StartTime><Timestamp dt:dt=""int"">0</Timestamp><DateUtc dt:dt=""string"">2022-09-05T14:13:43Z</DateUtc></StartTime><FrequencyChanges><FrequencyChange><Frequency dt:dt=""r8"">3312890</Frequency><Timestamp dt:dt=""r8"">88837651755</Timestamp><Current dt:dt=""r8"">0</Current><DateUtc dt:dt=""string"">2022-09-05T14:13:43Z</DateUtc></FrequencyChange></FrequencyChanges></Clock>\n";TMS_Ibrahim-38-2;75031;100561;1;;-1356022842;2010242;2010242;09/05/2022;05/09/2022 14:13;16:13:44;2010147;0;;-999999;26;23934;0;1;1240;25174;1;1;1;2;1;1;1;BlockProcFischi;BlockList;1;125;0;;-999999;32;29043;0;1;1954;30997;1;1;1;1;ProcFischi1;ListBlockFischi;31;1;2;0;0;5;Pr8_B;150;1;op;5;2;10;1;31;1;0;TrialProc;2042;716;Pr8_B;89;1831;1742;ListFischi1;0;;3;203;278372;12;15;1865;280237;377;1;1865;1;1201;238;1488;1;1
TMS_Ibrahim;38;2;"<?xml version=""1.0""?>\n<Clock xmlns:dt=""urn:schemas-microsoft-com:datatypes""><Description dt:dt=""string"">E-Prime Primary Realtime Clock</Description><StartTime><Timestamp dt:dt=""int"">0</Timestamp><DateUtc dt:dt=""string"">2022-09-05T14:13:43Z</DateUtc></StartTime><FrequencyChanges><FrequencyChange><Frequency dt:dt=""r8"">3312890</Frequency><Timestamp dt:dt=""r8"">88837651755</Timestamp><Current dt:dt=""r8"">0</Current><DateUtc dt:dt=""string"">2022-09-05T14:13:43Z</DateUtc></FrequencyChange></FrequencyChanges></Clock>\n";TMS_Ibrahim-38-2;75031;100561;1;;-1356022842;2010242;2010242;09/05/2022;05/09/2022 14:13;16:13:44;2010147;0;;-999999;26;23934;0;1;1240;25174;1;1;1;2;1;1;1;BlockProcFischi;BlockList;1;125;0;;-999999;32;29043;0;1;1954;30997;1;1;1;1;ProcFischi1;ListBlockFischi;32;1;2;0;0;5;Pr3_B;125;1;op;5;2;12;1;32;1;0;TrialProc;1632;710;Pr3_B;96;1804;1709;ListFischi1;0;;2;203;286774;7;15;1831;288605;599;1;1831;1;1374;266;1232;1;1
TMS_Ibrahim;38;2;"<?xml version=""1.0""?>\n<Clock xmlns:dt=""urn:schemas-microsoft-com:datatypes""><Description dt:dt=""string"">E-Prime Primary Realtime Clock</Description><StartTime><Timestamp dt:dt=""int"">0</Timestamp><DateUtc dt:dt=""string"">2022-09-05T14:13:43Z</DateUtc></StartTime><FrequencyChanges><FrequencyChange><Frequency dt:dt=""r8"">3312890</Frequency><Timestamp dt:dt=""r8"">88837651755</Timestamp><Current dt:dt=""r8"">0</Current><DateUtc dt:dt=""string"">2022-09-05T14:13:43Z</DateUtc></FrequencyChange></FrequencyChanges></Clock>\n";TMS_Ibrahim-38-2;75031;100561;1;;-1356022842;2010242;2010242;09/05/2022;05/09/2022 14:13;16:13:44;2010147;0;;-999999;26;23934;0;1;1240;25174;1;1;1;2;1;1;1;BlockProcFischi;BlockList;1;125;0;;-999999;32;29043;0;1;1954;30997;1;1;1;1;ProcFischi1;ListBlockFischi;33;1;1;0;0;5;Po5_B;150;4;ug;5;2;57;1;33;4;1;TrialProc;3602;976;Po5_B;48;1518;1470;ListFischi1;0;;2;203;295329;8;15;1548;296877;636;1;1548;1;1187;454;912;1;1
TMS_Ibrahim;38;2;"<?xml version=""1.0""?>\n<Clock xmlns:dt=""urn:schemas-microsoft-com:datatypes""><Description dt:dt=""string"">E-Prime Primary Realtime Clock</Description><StartTime><Timestamp dt:dt=""int"">0</Timestamp><DateUtc dt:dt=""string"">2022-09-05T14:13:43Z</DateUtc></StartTime><FrequencyChanges><FrequencyChange><Frequency dt:dt=""r8"">3312890</Frequency><Timestamp dt:dt=""r8"">88837651755</Timestamp><Current dt:dt=""r8"">0</Current><DateUtc dt:dt=""string"">2022-09-05T14:13:43Z</DateUtc></FrequencyChange></FrequencyChanges></Clock>\n";TMS_Ibrahim-38-2;75031;100561;1;;-1356022842;2010242;2010242;09/05/2022;05/09/2022 14:13;16:13:44;2010147;0;;-999999;26;23934;0;1;1240;25174;1;1;1;2;1;1;1;BlockProcFischi;BlockList;1;125;0;;-999999;32;29043;0;1;1954;30997;1;1;1;1;ProcFischi1;ListBlockFischi;34;1;1;0;0;3;Po2_B;150;2;op;3;2;43;1;34;2;0;TrialProc;1836;1598;Po2_B;105;1720;1826;ListFischi1;0;;5;210;305554;19;13;1754;307308;602;1;1754;1;871;569;1152;1;1
TMS_Ibrahim;38;2;"<?xml version=""1.0""?>\n<Clock xmlns:dt=""urn:schemas-microsoft-com:datatypes""><Description dt:dt=""string"">E-Prime Primary Realtime Clock</Description><StartTime><Timestamp dt:dt=""int"">0</Timestamp><DateUtc dt:dt=""string"">2022-09-05T14:13:43Z</DateUtc></StartTime><FrequencyChanges><FrequencyChange><Frequency dt:dt=""r8"">3312890</Frequency><Timestamp dt:dt=""r8"">88837651755</Timestamp><Current dt:dt=""r8"">0</Current><DateUtc dt:dt=""string"">2022-09-05T14:13:43Z</DateUtc></FrequencyChange></FrequencyChanges></Clock>\n";TMS_Ibrahim-38-2;75031;100561;1;;-1356022842;2010242;2010242;09/05/2022;05/09/2022 14:13;16:13:44;2010147;0;;-999999;26;23934;0;1;1240;25174;1;1;1;2;1;1;1;BlockProcFischi;BlockList;1;125;0;;-999999;32;29043;0;1;1954;30997;1;1;1;1;ProcFischi1;ListBlockFischi;35;1;2;0;0;5;Pr2_B;100;1;op;5;2;11;1;35;1;0;TrialProc;1468;713;Pr2_B;235;1481;1245;ListFischi1;0;;2;203;314534;9;15;1510;316044;486;1;1510;1;944;378;1024;1;1
TMS_Ibrahim;38;2;"<?xml version=""1.0""?>\n<Clock xmlns:dt=""urn:schemas-microsoft-com:datatypes""><Description dt:dt=""string"">E-Prime Primary Realtime Clock</Description><StartTime><Timestamp dt:dt=""int"">0</Timestamp><DateUtc dt:dt=""string"">2022-09-05T14:13:43Z</DateUtc></StartTime><FrequencyChanges><FrequencyChange><Frequency dt:dt=""r8"">3312890</Frequency><Timestamp dt:dt=""r8"">88837651755</Timestamp><Current dt:dt=""r8"">0</Current><DateUtc dt:dt=""string"">2022-09-05T14:13:43Z</DateUtc></FrequencyChange></FrequencyChanges></Clock>\n";TMS_Ibrahim-38-2;75031;100561;1;;-1356022842;2010242;2010242;09/05/2022;05/09/2022 14:13;16:13:44;2010147;0;;-999999;26;23934;0;1;1240;25174;1;1;1;2;1;1;1;BlockProcFischi;BlockList;1;125;0;;-999999;32;29043;0;1;1954;30997;1;1;1;1;ProcFischi1;ListBlockFischi;36;1;1;0;0;3;Po2_B;125;2;op;3;2;33;1;36;2;0;TrialProc;2629;1578;Po2_B;39;1767;1805;ListFischi1;0;;2;203;322611;9;13;1801;324412;441;1;1801;1;875;266;1360;1;1
TMS_Ibrahim;38;2;"<?xml version=""1.0""?>\n<Clock xmlns:dt=""urn:schemas-microsoft-com:datatypes""><Description dt:dt=""string"">E-Prime Primary Realtime Clock</Description><StartTime><Timestamp dt:dt=""int"">0</Timestamp><DateUtc dt:dt=""string"">2022-09-05T14:13:43Z</DateUtc></StartTime><FrequencyChanges><FrequencyChange><Frequency dt:dt=""r8"">3312890</Frequency><Timestamp dt:dt=""r8"">88837651755</Timestamp><Current dt:dt=""r8"">0</Current><DateUtc dt:dt=""string"">2022-09-05T14:13:43Z</DateUtc></FrequencyChange></FrequencyChanges></Clock>\n";TMS_Ibrahim-38-2;75031;100561;1;;-1356022842;2010242;2010242;09/05/2022;05/09/2022 14:13;16:13:44;2010147;0;;-999999;26;23934;0;1;1240;25174;1;1;1;2;1;1;1;BlockProcFischi;BlockList;1;125;0;;-999999;32;29043;0;1;1954;30997;1;1;1;1;ProcFischi1;ListBlockFischi;37;1;1;0;0;5;Po8_B;125;4;ug;5;2;53;1;37;4;1;TrialProc;3010;1243;Po8_B;2;1575;1576;ListFischi1;0;;2;203;330929;8;15;1610;332539;395;1;1610;1;632;238;1215;1;1
TMS_Ibrahim;38;2;"<?xml version=""1.0""?>\n<Clock xmlns:dt=""urn:schemas-microsoft-com:datatypes""><Description dt:dt=""string"">E-Prime Primary Realtime Clock</Description><StartTime><Timestamp dt:dt=""int"">0</Timestamp><DateUtc dt:dt=""string"">2022-09-05T14:13:43Z</DateUtc></StartTime><FrequencyChanges><FrequencyChange><Frequency dt:dt=""r8"">3312890</Frequency><Timestamp dt:dt=""r8"">88837651755</Timestamp><Current dt:dt=""r8"">0</Current><DateUtc dt:dt=""string"">2022-09-05T14:13:43Z</DateUtc></FrequencyChange></FrequencyChanges></Clock>\n";TMS_Ibrahim-38-2;75031;100561;1;;-1356022842;2010242;2010242;09/05/2022;05/09/2022 14:13;16:13:44;2010147;0;;-999999;26;23934;0;1;1240;25174;1;1;1;2;1;1;1;BlockProcFischi;BlockList;1;125;0;;-999999;32;29043;0;1;1954;30997;1;1;1;1;ProcFischi1;ListBlockFischi;38;1;1;0;0;3;Po4_B;100;2;op;3;2;40;1;38;2;0;TrialProc;2610;1341;Po4_B;288;1426;1714;ListFischi1;0;;2;203;339535;11;13;1452;340987;412;1;1452;1;851;430;1040;1;1
TMS_Ibrahim;38;2;"<?xml version=""1.0""?>\n<Clock xmlns:dt=""urn:schemas-microsoft-com:datatypes""><Description dt:dt=""string"">E-Prime Primary Realtime Clock</Description><StartTime><Timestamp dt:dt=""int"">0</Timestamp><DateUtc dt:dt=""string"">2022-09-05T14:13:43Z</DateUtc></StartTime><FrequencyChanges><FrequencyChange><Frequency dt:dt=""r8"">3312890</Frequency><Timestamp dt:dt=""r8"">88837651755</Timestamp><Current dt:dt=""r8"">0</Current><DateUtc dt:dt=""string"">2022-09-05T14:13:43Z</DateUtc></FrequencyChange></FrequencyChanges></Clock>\n";TMS_Ibrahim-38-2;75031;100561;1;;-1356022842;2010242;2010242;09/05/2022;05/09/2022 14:13;16:13:44;2010147;0;;-999999;26;23934;0;1;1240;25174;1;1;1;2;1;1;1;BlockProcFischi;BlockList;1;125;0;;-999999;32;29043;0;1;1954;30997;1;1;1;1;ProcFischi1;ListBlockFischi;39;1;1;0;0;5;Po3_B;100;4;ug;5;2;60;1;39;4;1;TrialProc;2697;1311;Po3_B;66;1511;1577;ListFischi1;0;;2;203;348215;8;15;1540;349755;372;1;1540;1;614;397;1168;1;1
TMS_Ibrahim;38;2;"<?xml version=""1.0""?>\n<Clock xmlns:dt=""urn:schemas-microsoft-com:datatypes""><Description dt:dt=""string"">E-Prime Primary Realtime Clock</Description><StartTime><Timestamp dt:dt=""int"">0</Timestamp><DateUtc dt:dt=""string"">2022-09-05T14:13:43Z</DateUtc></StartTime><FrequencyChanges><FrequencyChange><Frequency dt:dt=""r8"">3312890</Frequency><Timestamp dt:dt=""r8"">88837651755</Timestamp><Current dt:dt=""r8"">0</Current><DateUtc dt:dt=""string"">2022-09-05T14:13:43Z</DateUtc></FrequencyChange></FrequencyChanges></Clock>\n";TMS_Ibrahim-38-2;75031;100561;1;;-1356022842;2010242;2010242;09/05/2022;05/09/2022 14:13;16:13:44;2010147;0;;-999999;26;23934;0;1;1240;25174;1;1;1;2;1;1;1;BlockProcFischi;BlockList;1;125;0;;-999999;32;29043;0;1;1954;30997;1;1;1;1;ProcFischi1;ListBlockFischi;40;1;1;0;1;3;Po3_B;100;2;op;3;2;39;1;40;2;0;TrialProc;3006;1309;Po3_B;16;1592;1577;ListFischi1;0;;2;201;355999;8;133;1788;357787;508;1;1627;1;284;521;1119;1;1
TMS_Ibrahim;38;2;"<?xml version=""1.0""?>\n<Clock xmlns:dt=""urn:schemas-microsoft-com:datatypes""><Description dt:dt=""string"">E-Prime Primary Realtime Clock</Description><StartTime><Timestamp dt:dt=""int"">0</Timestamp><DateUtc dt:dt=""string"">2022-09-05T14:13:43Z</DateUtc></StartTime><FrequencyChanges><FrequencyChange><Frequency dt:dt=""r8"">3312890</Frequency><Timestamp dt:dt=""r8"">88837651755</Timestamp><Current dt:dt=""r8"">0</Current><DateUtc dt:dt=""string"">2022-09-05T14:13:43Z</DateUtc></FrequencyChange></FrequencyChanges></Clock>\n";TMS_Ibrahim-38-2;75031;100561;1;;-1356022842;2010242;2010242;09/05/2022;05/09/2022 14:13;16:13:44;2010147;0;;-999999;26;23934;0;1;1240;25174;1;1;1;2;1;1;1;BlockProcFischi;BlockList;1;125;0;;-999999;32;29043;0;1;1954;30997;1;1;1;1;ProcFischi1;ListBlockFischi;41;1;2;0;0;3;Pr3_B;100;3;ug;3;2;23;1;41;3;1;TrialProc;2469;709;Pr3_B;19;1727;1709;ListFischi1;0;;2;203;364771;6;133;2391;367162;279;1;1751;1;412;400;1472;1;1
TMS_Ibrahim;38;2;"<?xml version=""1.0""?>\n<Clock xmlns:dt=""urn:schemas-microsoft-com:datatypes""><Description dt:dt=""string"">E-Prime Primary Realtime Clock</Description><StartTime><Timestamp dt:dt=""int"">0</Timestamp><DateUtc dt:dt=""string"">2022-09-05T14:13:43Z</DateUtc></StartTime><FrequencyChanges><FrequencyChange><Frequency dt:dt=""r8"">3312890</Frequency><Timestamp dt:dt=""r8"">88837651755</Timestamp><Current dt:dt=""r8"">0</Current><DateUtc dt:dt=""string"">2022-09-05T14:13:43Z</DateUtc></FrequencyChange></FrequencyChanges></Clock>\n";TMS_Ibrahim-38-2;75031;100561;1;;-1356022842;2010242;2010242;09/05/2022;05/09/2022 14:13;16:13:44;2010147;0;;-999999;26;23934;0;1;1240;25174;1;1;1;2;1;1;1;BlockProcFischi;BlockList;1;125;0;;-999999;32;29043;0;1;1954;30997;1;1;1;1;ProcFischi1;ListBlockFischi;42;1;1;0;0;5;Po2_B;75;4;ug;5;2;49;1;42;4;1;TrialProc;2346;1576;Po2_B;2;1802;1804;ListFischi1;0;;2;203;373513;7;151;3537;377050;577;1;1825;1;928;201;1248;1;1
TMS_Ibrahim;38;2;"<?xml version=""1.0""?>\n<Clock xmlns:dt=""urn:schemas-microsoft-com:datatypes""><Description dt:dt=""string"">E-Prime Primary Realtime Clock</Description><StartTime><Timestamp dt:dt=""int"">0</Timestamp><DateUtc dt:dt=""string"">2022-09-05T14:13:43Z</DateUtc></StartTime><FrequencyChanges><FrequencyChange><Frequency dt:dt=""r8"">3312890</Frequency><Timestamp dt:dt=""r8"">88837651755</Timestamp><Current dt:dt=""r8"">0</Current><DateUtc dt:dt=""string"">2022-09-05T14:13:43Z</DateUtc></FrequencyChange></FrequencyChanges></Clock>\n";TMS_Ibrahim-38-2;75031;100561;1;;-1356022842;2010242;2010242;09/05/2022;05/09/2022 14:13;16:13:44;2010147;0;;-999999;26;23934;0;1;1240;25174;1;1;1;2;1;1;1;BlockProcFischi;BlockList;1;125;0;;-999999;32;29043;0;1;1954;30997;1;1;1;1;ProcFischi1;ListBlockFischi;43;1;1;0;0;3;Po2_B;75;2;op;3;2;38;1;43;2;0;TrialProc;3961;1581;Po2_B;103;1910;1807;ListFischi1;0;;2;203;381998;12;13;1931;383929;540;1;1931;1;474;402;1391;1;1
TMS_Ibrahim;38;2;"<?xml version=""1.0""?>\n<Clock xmlns:dt=""urn:schemas-microsoft-com:datatypes""><Description dt:dt=""string"">E-Prime Primary Realtime Clock</Description><StartTime><Timestamp dt:dt=""int"">0</Timestamp><DateUtc dt:dt=""string"">2022-09-05T14:13:43Z</DateUtc></StartTime><FrequencyChanges><FrequencyChange><Frequency dt:dt=""r8"">3312890</Frequency><Timestamp dt:dt=""r8"">88837651755</Timestamp><Current dt:dt=""r8"">0</Current><DateUtc dt:dt=""string"">2022-09-05T14:13:43Z</DateUtc></FrequencyChange></FrequencyChanges></Clock>\n";TMS_Ibrahim-38-2;75031;100561;1;;-1356022842;2010242;2010242;09/05/2022;05/09/2022 14:13;16:13:44;2010147;0;;-999999;26;23934;0;1;1240;25174;1;1;1;2;1;1;1;BlockProcFischi;BlockList;1;125;0;;-999999;32;29043;0;1;1954;30997;1;1;1;1;ProcFischi1;ListBlockFischi;44;1;2;0;0;3;Pr5_B;75;3;ug;3;2;20;1;44;3;1;TrialProc;3554;675;Pr5_B;43;1317;1274;ListFischi1;0;;2;203;390407;13;13;1346;391753;498;1;1346;1;1561;573;848;1;1
TMS_Ibrahim;38;2;"<?xml version=""1.0""?>\n<Clock xmlns:dt=""urn:schemas-microsoft-com:datatypes""><Description dt:dt=""string"">E-Prime Primary Realtime Clock</Description><StartTime><Timestamp dt:dt=""int"">0</Timestamp><DateUtc dt:dt=""string"">2022-09-05T14:13:43Z</DateUtc></StartTime><FrequencyChanges><FrequencyChange><Frequency dt:dt=""r8"">3312890</Frequency><Timestamp dt:dt=""r8"">88837651755</Timestamp><Current dt:dt=""r8"">0</Current><DateUtc dt:dt=""string"">2022-09-05T14:13:43Z</DateUtc></FrequencyChange></FrequencyChanges></Clock>\n";TMS_Ibrahim-38-2;75031;100561;1;;-1356022842;2010242;2010242;09/05/2022;05/09/2022 14:13;16:13:44;2010147;0;;-999999;26;23934;0;1;1240;25174;1;1;1;2;1;1;1;BlockProcFischi;BlockList;1;125;0;;-999999;32;29043;0;1;1954;30997;1;1;1;1;ProcFischi1;ListBlockFischi;45;1;1;0;1;3;Po5_B;75;2;op;3;2;46;1;45;2;0;TrialProc;1788;981;Po5_B;84;1559;1474;ListFischi1;0;;2;203;399284;12;13;1589;400873;501;1;1589;1;1388;257;1088;1;1
TMS_Ibrahim;38;2;"<?xml version=""1.0""?>\n<Clock xmlns:dt=""urn:schemas-microsoft-com:datatypes""><Description dt:dt=""string"">E-Prime Primary Realtime Clock</Description><StartTime><Timestamp dt:dt=""int"">0</Timestamp><DateUtc dt:dt=""string"">2022-09-05T14:13:43Z</DateUtc></StartTime><FrequencyChanges><FrequencyChange><Frequency dt:dt=""r8"">3312890</Frequency><Timestamp dt:dt=""r8"">88837651755</Timestamp><Current dt:dt=""r8"">0</Current><DateUtc dt:dt=""string"">2022-09-05T14:13:43Z</DateUtc></FrequencyChange></FrequencyChanges></Clock>\n";TMS_Ibrahim-38-2;75031;100561;1;;-1356022842;2010242;2010242;09/05/2022;05/09/2022 14:13;16:13:44;2010147;0;;-999999;26;23934;0;1;1240;25174;1;1;1;2;1;1;1;BlockProcFischi;BlockList;1;125;0;;-999999;32;29043;0;1;1954;30997;1;1;1;1;ProcFischi1;ListBlockFischi;46;1;1;1;0;5;Pomod_B;50;4;ug;5;2;64;1;46;4;1;TrialProc;2663;1321;Pomod_B;218;1900;1682;ListFischi1;0;;2;203;408727;19;15;1922;410649;530;1;1922;1;632;401;1392;1;1
TMS_Ibrahim;38;2;"<?xml version=""1.0""?>\n<Clock xmlns:dt=""urn:schemas-microsoft-com:datatypes""><Description dt:dt=""string"">E-Prime Primary Realtime Clock</Description><StartTime><Timestamp dt:dt=""int"">0</Timestamp><DateUtc dt:dt=""string"">2022-09-05T14:13:43Z</DateUtc></StartTime><FrequencyChanges><FrequencyChange><Frequency dt:dt=""r8"">3312890</Frequency><Timestamp dt:dt=""r8"">88837651755</Timestamp><Current dt:dt=""r8"">0</Current><DateUtc dt:dt=""string"">2022-09-05T14:13:43Z</DateUtc></FrequencyChange></FrequencyChanges></Clock>\n";TMS_Ibrahim-38-2;75031;100561;1;;-1356022842;2010242;2010242;09/05/2022;05/09/2022 14:13;16:13:44;2010147;0;;-999999;26;23934;0;1;1240;25174;1;1;1;2;1;1;1;BlockProcFischi;BlockList;1;125;0;;-999999;32;29043;0;1;1954;30997;1;1;1;1;ProcFischi1;ListBlockFischi;47;1;2;0;0;3;Pr2_B;50;3;ug;3;2;22;1;47;3;1;TrialProc;3529;715;Pr2_B;52;1302;1249;ListFischi1;0;;2;201;416223;13;13;1337;417560;377;1;1337;1;836;597;960;1;1
TMS_Ibrahim;38;2;"<?xml version=""1.0""?>\n<Clock xmlns:dt=""urn:schemas-microsoft-com:datatypes""><Description dt:dt=""string"">E-Prime Primary Realtime Clock</Description><StartTime><Timestamp dt:dt=""int"">0</Timestamp><DateUtc dt:dt=""string"">2022-09-05T14:13:43Z</DateUtc></StartTime><FrequencyChanges><FrequencyChange><Frequency dt:dt=""r8"">3312890</Frequency><Timestamp dt:dt=""r8"">88837651755</Timestamp><Current dt:dt=""r8"">0</Current><DateUtc dt:dt=""string"">2022-09-05T14:13:43Z</DateUtc></FrequencyChange></FrequencyChanges></Clock>\n";TMS_Ibrahim-38-2;75031;100561;1;;-1356022842;2010242;2010242;09/05/2022;05/09/2022 14:13;16:13:44;2010147;0;;-999999;26;23934;0;1;1240;25174;1;1;1;2;1;1;1;BlockProcFischi;BlockList;1;125;0;;-999999;32;29043;0;1;1954;30997;1;1;1;1;ProcFischi1;ListBlockFischi;48;1;1;0;1;5;Po8_B;50;4;ug;5;2;58;1;48;4;1;TrialProc;1618;1252;Po8_B;1;1587;1585;ListFischi1;0;;2;203;423631;16;155;1657;425288;265;1;1609;1;698;600;1344;1;1
TMS_Ibrahim;38;2;"<?xml version=""1.0""?>\n<Clock xmlns:dt=""urn:schemas-microsoft-com:datatypes""><Description dt:dt=""string"">E-Prime Primary Realtime Clock</Description><StartTime><Timestamp dt:dt=""int"">0</Timestamp><DateUtc dt:dt=""string"">2022-09-05T14:13:43Z</DateUtc></StartTime><FrequencyChanges><FrequencyChange><Frequency dt:dt=""r8"">3312890</Frequency><Timestamp dt:dt=""r8"">88837651755</Timestamp><Current dt:dt=""r8"">0</Current><DateUtc dt:dt=""string"">2022-09-05T14:13:43Z</DateUtc></FrequencyChange></FrequencyChanges></Clock>\n";TMS_Ibrahim-38-2;75031;100561;1;;-1356022842;2010242;2010242;09/05/2022;05/09/2022 14:13;16:13:44;2010147;0;;-999999;26;23934;0;1;1240;25174;1;1;1;2;1;1;1;BlockProcFischi;BlockList;1;125;0;;-999999;32;29043;0;1;1954;30997;1;1;1;1;ProcFischi1;ListBlockFischi;49;1;1;0;1;3;Po5_B;75;2;op;3;2;36;1;49;2;0;TrialProc;3486;985;Po5_B;3;1474;1477;ListFischi1;0;;2;203;431389;14;133;2235;433624;539;1;1499;1;726;231;960;1;1
TMS_Ibrahim;38;2;"<?xml version=""1.0""?>\n<Clock xmlns:dt=""urn:schemas-microsoft-com:datatypes""><Description dt:dt=""string"">E-Prime Primary Realtime Clock</Description><StartTime><Timestamp dt:dt=""int"">0</Timestamp><DateUtc dt:dt=""string"">2022-09-05T14:13:43Z</DateUtc></StartTime><FrequencyChanges><FrequencyChange><Frequency dt:dt=""r8"">3312890</Frequency><Timestamp dt:dt=""r8"">88837651755</Timestamp><Current dt:dt=""r8"">0</Current><DateUtc dt:dt=""string"">2022-09-05T14:13:43Z</DateUtc></FrequencyChange></FrequencyChanges></Clock>\n";TMS_Ibrahim-38-2;75031;100561;1;;-1356022842;2010242;2010242;09/05/2022;05/09/2022 14:13;16:13:44;2010147;0;;-999999;26;23934;0;1;1240;25174;1;1;1;2;1;1;1;BlockProcFischi;BlockList;1;125;0;;-999999;32;29043;0;1;1954;30997;1;1;1;1;ProcFischi1;ListBlockFischi;50;1;2;1;1;5;Prmod_B;100;1;op;5;2;16;1;50;1;0;TrialProc;1636;1315;Prmod_B;84;1732;1647;ListFischi1;0;;2;201;438535;12;15;1760;440295;464;1;1760;1;326;595;1296;1;1
TMS_Ibrahim;38;2;"<?xml version=""1.0""?>\n<Clock xmlns:dt=""urn:schemas-microsoft-com:datatypes""><Description dt:dt=""string"">E-Prime Primary Realtime Clock</Description><StartTime><Timestamp dt:dt=""int"">0</Timestamp><DateUtc dt:dt=""string"">2022-09-05T14:13:43Z</DateUtc></StartTime><FrequencyChanges><FrequencyChange><Frequency dt:dt=""r8"">3312890</Frequency><Timestamp dt:dt=""r8"">88837651755</Timestamp><Current dt:dt=""r8"">0</Current><DateUtc dt:dt=""string"">2022-09-05T14:13:43Z</DateUtc></FrequencyChange></FrequencyChanges></Clock>\n";TMS_Ibrahim-38-2;75031;100561;1;;-1356022842;2010242;2010242;09/05/2022;05/09/2022 14:13;16:13:44;2010147;0;;-999999;26;23934;0;1;1240;25174;1;1;1;2;1;1;1;BlockProcFischi;BlockList;1;125;0;;-999999;32;29043;0;1;1954;30997;1;1;1;1;ProcFischi1;ListBlockFischi;51;1;2;0;0;3;Pr2_B;50;3;ug;3;2;17;1;51;3;1;TrialProc;2263;721;Pr2_B;106;1360;1254;ListFischi1;0;;2;203;446020;18;133;2035;448055;131;1;1395;1;518;399;1264;1;1
TMS_Ibrahim;38;2;"<?xml version=""1.0""?>\n<Clock xmlns:dt=""urn:schemas-microsoft-com:datatypes""><Description dt:dt=""string"">E-Prime Primary Realtime Clock</Description><StartTime><Timestamp dt:dt=""int"">0</Timestamp><DateUtc dt:dt=""string"">2022-09-05T14:13:43Z</DateUtc></StartTime><FrequencyChanges><FrequencyChange><Frequency dt:dt=""r8"">3312890</Frequency><Timestamp dt:dt=""r8"">88837651755</Timestamp><Current dt:dt=""r8"">0</Current><DateUtc dt:dt=""string"">2022-09-05T14:13:43Z</DateUtc></FrequencyChange></FrequencyChanges></Clock>\n";TMS_Ibrahim-38-2;75031;100561;1;;-1356022842;2010242;2010242;09/05/2022;05/09/2022 14:13;16:13:44;2010147;0;;-999999;26;23934;0;1;1240;25174;1;1;1;2;1;1;1;BlockProcFischi;BlockList;1;125;0;;-999999;32;29043;0;1;1954;30997;1;1;1;1;ProcFischi1;ListBlockFischi;52;1;1;0;0;3;Po4_B;50;2;op;3;2;35;1;52;2;0;TrialProc;1166;1342;Po4_B;2;1715;1717;ListFischi1;0;;2;201;452821;14;13;1746;454567;658;1;1746;1;344;571;1088;1;1
TMS_Ibrahim;38;2;"<?xml version=""1.0""?>\n<Clock xmlns:dt=""urn:schemas-microsoft-com:datatypes""><Description dt:dt=""string"">E-Prime Primary Realtime Clock</Description><StartTime><Timestamp dt:dt=""int"">0</Timestamp><DateUtc dt:dt=""string"">2022-09-05T14:13:43Z</DateUtc></StartTime><FrequencyChanges><FrequencyChange><Frequency dt:dt=""r8"">3312890</Frequency><Timestamp dt:dt=""r8"">88837651755</Timestamp><Current dt:dt=""r8"">0</Current><DateUtc dt:dt=""string"">2022-09-05T14:13:43Z</DateUtc></FrequencyChange></FrequencyChanges></Clock>\n";TMS_Ibrahim-38-2;75031;100561;1;;-1356022842;2010242;2010242;09/05/2022;05/09/2022 14:13;16:13:44;2010147;0;;-999999;26;23934;0;1;1240;25174;1;1;1;2;1;1;1;BlockProcFischi;BlockList;1;125;0;;-999999;32;29043;0;1;1954;30997;1;1;1;1;ProcFischi1;ListBlockFischi;53;1;2;0;1;5;Pr3_B;100;1;op;5;2;2;1;53;1;0;TrialProc;1736;710;Pr3_B;132;1842;1709;ListFischi1;0;;2;203;460291;8;115;1875;462166;212;1;1875;1;516;239;1663;1;1
TMS_Ibrahim;38;2;"<?xml version=""1.0""?>\n<Clock xmlns:dt=""urn:schemas-microsoft-com:datatypes""><Description dt:dt=""string"">E-Prime Primary Realtime Clock</Description><StartTime><Timestamp dt:dt=""int"">0</Timestamp><DateUtc dt:dt=""string"">2022-09-05T14:13:43Z</DateUtc></StartTime><FrequencyChanges><FrequencyChange><Frequency dt:dt=""r8"">3312890</Frequency><Timestamp dt:dt=""r8"">88837651755</Timestamp><Current dt:dt=""r8"">0</Current><DateUtc dt:dt=""string"">2022-09-05T14:13:43Z</DateUtc></FrequencyChange></FrequencyChanges></Clock>\n";TMS_Ibrahim-38-2;75031;100561;1;;-1356022842;2010242;2010242;09/05/2022;05/09/2022 14:13;16:13:44;2010147;0;;-999999;26;23934;0;1;1240;25174;1;1;1;2;1;1;1;BlockProcFischi;BlockList;1;125;0;;-999999;32;29043;0;1;1954;30997;1;1;1;1;ProcFischi1;ListBlockFischi;54;1;1;0;0;3;Po3_B;25;2;op;3;2;44;1;54;2;0;TrialProc;2400;1315;Po3_B;26;1609;1583;ListFischi1;0;;2;201;467844;12;13;1634;469478;514;1;1634;1;606;420;1120;1;1
TMS_Ibrahim;38;2;"<?xml version=""1.0""?>\n<Clock xmlns:dt=""urn:schemas-microsoft-com:datatypes""><Description dt:dt=""string"">E-Prime Primary Realtime Clock</Description><StartTime><Timestamp dt:dt=""int"">0</Timestamp><DateUtc dt:dt=""string"">2022-09-05T14:13:43Z</DateUtc></StartTime><FrequencyChanges><FrequencyChange><Frequency dt:dt=""r8"">3312890</Frequency><Timestamp dt:dt=""r8"">88837651755</Timestamp><Current dt:dt=""r8"">0</Current><DateUtc dt:dt=""string"">2022-09-05T14:13:43Z</DateUtc></FrequencyChange></FrequencyChanges></Clock>\n";TMS_Ibrahim-38-2;75031;100561;1;;-1356022842;2010242;2010242;09/05/2022;05/09/2022 14:13;16:13:44;2010147;0;;-999999;26;23934;0;1;1240;25174;1;1;1;2;1;1;1;BlockProcFischi;BlockList;1;125;0;;-999999;32;29043;0;1;1954;30997;1;1;1;1;ProcFischi1;ListBlockFischi;55;1;2;0;1;3;Pr8_B;50;3;ug;3;2;26;1;55;3;1;TrialProc;2001;715;Pr8_B;12;1729;1741;ListFischi1;0;;2;203;475640;13;13;1758;477398;238;1;1758;1;1261;557;1520;1;1
TMS_Ibrahim;38;2;"<?xml version=""1.0""?>\n<Clock xmlns:dt=""urn:schemas-microsoft-com:datatypes""><Description dt:dt=""string"">E-Prime Primary Realtime Clock</Description><StartTime><Timestamp dt:dt=""int"">0</Timestamp><DateUtc dt:dt=""string"">2022-09-05T14:13:43Z</DateUtc></StartTime><FrequencyChanges><FrequencyChange><Frequency dt:dt=""r8"">3312890</Frequency><Timestamp dt:dt=""r8"">88837651755</Timestamp><Current dt:dt=""r8"">0</Current><DateUtc dt:dt=""string"">2022-09-05T14:13:43Z</DateUtc></FrequencyChange></FrequencyChanges></Clock>\n";TMS_Ibrahim-38-2;75031;100561;1;;-1356022842;2010242;2010242;09/05/2022;05/09/2022 14:13;16:13:44;2010147;0;;-999999;26;23934;0;1;1240;25174;1;1;1;2;1;1;1;BlockProcFischi;BlockList;1;125;0;;-999999;32;29043;0;1;1954;30997;1;1;1;1;ProcFischi1;ListBlockFischi;56;1;1;0;0;5;Po2_B;25;4;ug;5;2;59;1;56;4;1;TrialProc;1923;1583;Po2_B;169;1640;1809;ListFischi1;0;;2;203;483836;13;15;1674;485510;410;1;1674;1;929;454;1264;1;1
TMS_Ibrahim;38;2;"<?xml version=""1.0""?>\n<Clock xmlns:dt=""urn:schemas-microsoft-com:datatypes""><Description dt:dt=""string"">E-Prime Primary Realtime Clock</Description><StartTime><Timestamp dt:dt=""int"">0</Timestamp><DateUtc dt:dt=""string"">2022-09-05T14:13:43Z</DateUtc></StartTime><FrequencyChanges><FrequencyChange><Frequency dt:dt=""r8"">3312890</Frequency><Timestamp dt:dt=""r8"">88837651755</Timestamp><Current dt:dt=""r8"">0</Current><DateUtc dt:dt=""string"">2022-09-05T14:13:43Z</DateUtc></FrequencyChange></FrequencyChanges></Clock>\n";TMS_Ibrahim-38-2;75031;100561;1;;-1356022842;2010242;2010242;09/05/2022;05/09/2022 14:13;16:13:44;2010147;0;;-999999;26;23934;0;1;1240;25174;1;1;1;2;1;1;1;BlockProcFischi;BlockList;1;125;0;;-999999;32;29043;0;1;1954;30997;1;1;1;1;ProcFischi1;ListBlockFischi;57;1;1;0;0;3;Po8_B;25;2;op;3;2;37;1;57;2;0;TrialProc;5412;1244;Po8_B;29;1547;1577;ListFischi1;0;;2;203;493052;7;13;1577;494629;377;1;1577;1;975;423;1200;1;1
TMS_Ibrahim;38;2;"<?xml version=""1.0""?>\n<Clock xmlns:dt=""urn:schemas-microsoft-com:datatypes""><Description dt:dt=""string"">E-Prime Primary Realtime Clock</Description><StartTime><Timestamp dt:dt=""int"">0</Timestamp><DateUtc dt:dt=""string"">2022-09-05T14:13:43Z</DateUtc></StartTime><FrequencyChanges><FrequencyChange><Frequency dt:dt=""r8"">3312890</Frequency><Timestamp dt:dt=""r8"">88837651755</Timestamp><Current dt:dt=""r8"">0</Current><DateUtc dt:dt=""string"">2022-09-05T14:13:43Z</DateUtc></FrequencyChange></FrequencyChanges></Clock>\n";TMS_Ibrahim-38-2;75031;100561;1;;-1356022842;2010242;2010242;09/05/2022;05/09/2022 14:13;16:13:44;2010147;0;;-999999;26;23934;0;1;1240;25174;1;1;1;2;1;1;1;BlockProcFischi;BlockList;1;125;0;;-999999;32;29043;0;1;1954;30997;1;1;1;1;ProcFischi1;ListBlockFischi;58;1;1;0;1;5;Po2_B;25;4;ug;5;2;54;1;58;4;1;TrialProc;2135;1584;Po2_B;0;1812;1812;ListFischi1;0;;2;203;502986;16;1511;3787;506773;475;1;1835;1;1382;554;1360;1;1
TMS_Ibrahim;38;2;"<?xml version=""1.0""?>\n<Clock xmlns:dt=""urn:schemas-microsoft-com:datatypes""><Description dt:dt=""string"">E-Prime Primary Realtime Clock</Description><StartTime><Timestamp dt:dt=""int"">0</Timestamp><DateUtc dt:dt=""string"">2022-09-05T14:13:43Z</DateUtc></StartTime><FrequencyChanges><FrequencyChange><Frequency dt:dt=""r8"">3312890</Frequency><Timestamp dt:dt=""r8"">88837651755</Timestamp><Current dt:dt=""r8"">0</Current><DateUtc dt:dt=""string"">2022-09-05T14:13:43Z</DateUtc></FrequencyChange></FrequencyChanges></Clock>\n";TMS_Ibrahim-38-2;75031;100561;1;;-1356022842;2010242;2010242;09/05/2022;05/09/2022 14:13;16:13:44;2010147;0;;-999999;26;23934;0;1;1240;25174;1;1;1;2;1;1;1;BlockProcFischi;BlockList;1;125;0;;-999999;32;29043;0;1;1954;30997;1;1;1;1;ProcFischi1;ListBlockFischi;59;1;2;0;2;5;Pr8_B;100;1;op;5;2;5;1;59;1;0;TrialProc;2030;716;Pr8_B;191;1932;1742;ListFischi1;0;;2;201;510374;12;15;1967;512341;895;1;1967;1;631;242;1072;1;1
TMS_Ibrahim;38;2;"<?xml version=""1.0""?>\n<Clock xmlns:dt=""urn:schemas-microsoft-com:datatypes""><Description dt:dt=""string"">E-Prime Primary Realtime Clock</Description><StartTime><Timestamp dt:dt=""int"">0</Timestamp><DateUtc dt:dt=""string"">2022-09-05T14:13:43Z</DateUtc></StartTime><FrequencyChanges><FrequencyChange><Frequency dt:dt=""r8"">3312890</Frequency><Timestamp dt:dt=""r8"">88837651755</Timestamp><Current dt:dt=""r8"">0</Current><DateUtc dt:dt=""string"">2022-09-05T14:13:43Z</DateUtc></FrequencyChange></FrequencyChanges></Clock>\n";TMS_Ibrahim-38-2;75031;100561;1;;-1356022842;2010242;2010242;09/05/2022;05/09/2022 14:13;16:13:44;2010147;0;;-999999;26;23934;0;1;1240;25174;1;1;1;2;1;1;1;BlockProcFischi;BlockList;1;125;0;;-999999;32;29043;0;1;1954;30997;1;1;1;1;ProcFischi1;ListBlockFischi;60;1;1;0;0;3;Po3_B;25;2;op;3;2;34;1;60;2;0;TrialProc;2257;1312;Po3_B;34;1544;1578;ListFischi1;0;;2;203;517560;9;13;1580;519140;540;1;1580;1;634;301;1040;1;1
TMS_Ibrahim;38;2;"<?xml version=""1.0""?>\n<Clock xmlns:dt=""urn:schemas-microsoft-com:datatypes""><Description dt:dt=""string"">E-Prime Primary Realtime Clock</Description><StartTime><Timestamp dt:dt=""int"">0</Timestamp><DateUtc dt:dt=""string"">2022-09-05T14:13:43Z</DateUtc></StartTime><FrequencyChanges><FrequencyChange><Frequency dt:dt=""r8"">3312890</Frequency><Timestamp dt:dt=""r8"">88837651755</Timestamp><Current dt:dt=""r8"">0</Current><DateUtc dt:dt=""string"">2022-09-05T14:13:43Z</DateUtc></FrequencyChange></FrequencyChanges></Clock>\n";TMS_Ibrahim-38-2;75031;100561;1;;-1356022842;2010242;2010242;09/05/2022;05/09/2022 14:13;16:13:44;2010147;0;;-999999;26;23934;0;1;1240;25174;1;1;1;2;1;1;1;BlockProcFischi;BlockList;1;125;0;;-999999;32;29043;0;1;1954;30997;1;1;1;1;ProcFischi1;ListBlockFischi;61;1;1;1;1;5;Pomod_B;25;4;ug;5;2;63;1;61;4;1;TrialProc;2937;1317;Pomod_B;98;1775;1676;ListFischi1;0;;2;203;525767;13;15;1805;527572;381;1;1805;1;378;340;1424;1;1
TMS_Ibrahim;38;2;"<?xml version=""1.0""?>\n<Clock xmlns:dt=""urn:schemas-microsoft-com:datatypes""><Description dt:dt=""string"">E-Prime Primary Realtime Clock</Description><StartTime><Timestamp dt:dt=""int"">0</Timestamp><DateUtc dt:dt=""string"">2022-09-05T14:13:43Z</DateUtc></StartTime><FrequencyChanges><FrequencyChange><Frequency dt:dt=""r8"">3312890</Frequency><Timestamp dt:dt=""r8"">88837651755</Timestamp><Current dt:dt=""r8"">0</Current><DateUtc dt:dt=""string"">2022-09-05T14:13:43Z</DateUtc></FrequencyChange></FrequencyChanges></Clock>\n";TMS_Ibrahim-38-2;75031;100561;1;;-1356022842;2010242;2010242;09/05/2022;05/09/2022 14:13;16:13:44;2010147;0;;-999999;26;23934;0;1;1240;25174;1;1;1;2;1;1;1;BlockProcFischi;BlockList;1;125;0;;-999999;32;29043;0;1;1954;30997;1;1;1;1;ProcFischi1;ListBlockFischi;62;1;2;1;0;3;Prmod_B;25;3;ug;3;2;32;1;62;3;1;TrialProc;2154;1310;Prmod_B;0;1644;1644;ListFischi1;0;;2;203;534235;8;13;1673;535908;633;1;1673;1;504;295;1040;1;1
TMS_Ibrahim;38;2;"<?xml version=""1.0""?>\n<Clock xmlns:dt=""urn:schemas-microsoft-com:datatypes""><Description dt:dt=""string"">E-Prime Primary Realtime Clock</Description><StartTime><Timestamp dt:dt=""int"">0</Timestamp><DateUtc dt:dt=""string"">2022-09-05T14:13:43Z</DateUtc></StartTime><FrequencyChanges><FrequencyChange><Frequency dt:dt=""r8"">3312890</Frequency><Timestamp dt:dt=""r8"">88837651755</Timestamp><Current dt:dt=""r8"">0</Current><DateUtc dt:dt=""string"">2022-09-05T14:13:43Z</DateUtc></FrequencyChange></FrequencyChanges></Clock>\n";TMS_Ibrahim-38-2;75031;100561;1;;-1356022842;2010242;2010242;09/05/2022;05/09/2022 14:13;16:13:44;2010147;0;;-999999;26;23934;0;1;1240;25174;1;1;1;2;1;1;1;BlockProcFischi;BlockList;1;125;0;;-999999;32;29043;0;1;1954;30997;1;1;1;1;ProcFischi1;ListBlockFischi;63;1;2;0;0;5;Pr4_B;125;1;op;5;2;3;1;63;1;0;TrialProc;3215;676;Pr4_B;383;1633;1250;ListFischi1;0;;2;203;543092;14;15;1663;544755;496;1;1663;1;1151;341;1167;1;1
TMS_Ibrahim;38;2;"<?xml version=""1.0""?>\n<Clock xmlns:dt=""urn:schemas-microsoft-com:datatypes""><Description dt:dt=""string"">E-Prime Primary Realtime Clock</Description><StartTime><Timestamp dt:dt=""int"">0</Timestamp><DateUtc dt:dt=""string"">2022-09-05T14:13:43Z</DateUtc></StartTime><FrequencyChanges><FrequencyChange><Frequency dt:dt=""r8"">3312890</Frequency><Timestamp dt:dt=""r8"">88837651755</Timestamp><Current dt:dt=""r8"">0</Current><DateUtc dt:dt=""string"">2022-09-05T14:13:43Z</DateUtc></FrequencyChange></FrequencyChanges></Clock>\n";TMS_Ibrahim-38-2;75031;100561;1;;-1356022842;2010242;2010242;09/05/2022;05/09/2022 14:13;16:13:44;2010147;0;;-999999;26;23934;0;1;1240;25174;1;1;1;2;1;1;1;BlockProcFischi;BlockList;1;125;0;;-999999;32;29043;0;1;1954;30997;1;1;1;1;ProcFischi1;ListBlockFischi;64;1;2;0;0;3;Pr4_B;25;3;ug;3;2;19;1;64;3;1;TrialProc;708;677;Pr4_B;83;1334;1251;ListFischi1;0;;2;203;552156;13;13;1367;553523;455;1;1367;1;5244;414;912;1;1
TMS_Ibrahim;38;4;"<?xml version=""1.0""?>\n<Clock xmlns:dt=""urn:schemas-microsoft-com:datatypes""><Description dt:dt=""string"">E-Prime Primary Realtime Clock</Description><StartTime><Timestamp dt:dt=""int"">0</Timestamp><DateUtc dt:dt=""string"">2022-09-05T15:12:11Z</DateUtc></StartTime><FrequencyChanges><FrequencyChange><Frequency dt:dt=""r8"">3312890</Frequency><Timestamp dt:dt=""r8"">100458250221</Timestamp><Current dt:dt=""r8"">0</Current><DateUtc dt:dt=""string"">2022-09-05T15:12:11Z</DateUtc></FrequencyChange></FrequencyChanges></Clock>\n";TMS_Ibrahim-38-4;7503;100561;1;;1674639429;2010242;2010242;09/05/2022;05/09/2022 15:12;17:12:11;2010147;0;;-999999;25;19249;0;1;1713;20962;1;1;1;2;1;0;1;BlockProcFischi;BlockList;1;75;0;;-999999;13;23100;0;1;1060;24160;1;1;1;1;ProcFischi1;ListBlockFischi;1;1;1;0;0;5;Po4_B;250;4;ug;5;2;61;1;1;4;1;TrialProc;1272;1371;Po4_B;235;1510;1745;ListFischi1;0;;5;210;26667;31;15;1546;28213;410;1;1546;1;744;492;1136;1;1
TMS_Ibrahim;38;4;"<?xml version=""1.0""?>\n<Clock xmlns:dt=""urn:schemas-microsoft-com:datatypes""><Description dt:dt=""string"">E-Prime Primary Realtime Clock</Description><StartTime><Timestamp dt:dt=""int"">0</Timestamp><DateUtc dt:dt=""string"">2022-09-05T15:12:11Z</DateUtc></StartTime><FrequencyChanges><FrequencyChange><Frequency dt:dt=""r8"">3312890</Frequency><Timestamp dt:dt=""r8"">100458250221</Timestamp><Current dt:dt=""r8"">0</Current><DateUtc dt:dt=""string"">2022-09-05T15:12:11Z</DateUtc></FrequencyChange></FrequencyChanges></Clock>\n";TMS_Ibrahim-38-4;7503;100561;1;;1674639429;2010242;2010242;09/05/2022;05/09/2022 15:12;17:12:11;2010147;0;;-999999;25;19249;0;1;1713;20962;1;1;1;2;1;0;1;BlockProcFischi;BlockList;1;75;0;;-999999;13;23100;0;1;1060;24160;1;1;1;1;ProcFischi1;ListBlockFischi;2;1;1;0;0;5;Po8_B;250;4;ug;5;2;53;1;2;4;1;TrialProc;1563;1243;Po8_B;41;1535;1577;ListFischi1;0;;1;206;34091;5;151;4090;38181;330;1;1562;1;1653;599;1232;1;1
TMS_Ibrahim;38;4;"<?xml version=""1.0""?>\n<Clock xmlns:dt=""urn:schemas-microsoft-com:datatypes""><Description dt:dt=""string"">E-Prime Primary Realtime Clock</Description><StartTime><Timestamp dt:dt=""int"">0</Timestamp><DateUtc dt:dt=""string"">2022-09-05T15:12:11Z</DateUtc></StartTime><FrequencyChanges><FrequencyChange><Frequency dt:dt=""r8"">3312890</Frequency><Timestamp dt:dt=""r8"">100458250221</Timestamp><Current dt:dt=""r8"">0</Current><DateUtc dt:dt=""string"">2022-09-05T15:12:11Z</DateUtc></FrequencyChange></FrequencyChanges></Clock>\n";TMS_Ibrahim-38-4;7503;100561;1;;1674639429;2010242;2010242;09/05/2022;05/09/2022 15:12;17:12:11;2010147;0;;-999999;25;19249;0;1;1713;20962;1;1;1;2;1;0;1;BlockProcFischi;BlockList;1;75;0;;-999999;13;23100;0;1;1060;24160;1;1;1;1;ProcFischi1;ListBlockFischi;3;1;1;0;0;3;Po2_B;250;2;op;3;2;43;1;3;2;0;TrialProc;2379;1579;Po2_B;228;1578;1806;ListFischi1;0;;2;203;41297;9;13;1604;42901;292;1;1604;1;1237;376;1312;1;1
TMS_Ibrahim;38;4;"<?xml version=""1.0""?>\n<Clock xmlns:dt=""urn:schemas-microsoft-com:datatypes""><Description dt:dt=""string"">E-Prime Primary Realtime Clock</Description><StartTime><Timestamp dt:dt=""int"">0</Timestamp><DateUtc dt:dt=""string"">2022-09-05T15:12:11Z</DateUtc></StartTime><FrequencyChanges><FrequencyChange><Frequency dt:dt=""r8"">3312890</Frequency><Timestamp dt:dt=""r8"">100458250221</Timestamp><Current dt:dt=""r8"">0</Current><DateUtc dt:dt=""string"">2022-09-05T15:12:11Z</DateUtc></FrequencyChange></FrequencyChanges></Clock>\n";TMS_Ibrahim-38-4;7503;100561;1;;1674639429;2010242;2010242;09/05/2022;05/09/2022 15:12;17:12:11;2010147;0;;-999999;25;19249;0;1;1713;20962;1;1;1;2;1;0;1;BlockProcFischi;BlockList;1;75;0;;-999999;13;23100;0;1;1060;24160;1;1;1;1;ProcFischi1;ListBlockFischi;4;1;2;0;0;5;Pr5_B;250;1;op;5;2;4;1;4;1;0;TrialProc;1509;671;Pr5_B;49;1321;1272;ListFischi1;0;;2;203;49494;9;15;1342;50836;271;1;1342;1;2557;224;1071;1;1
TMS_Ibrahim;38;4;"<?xml version=""1.0""?>\n<Clock xmlns:dt=""urn:schemas-microsoft-com:datatypes""><Description dt:dt=""string"">E-Prime Primary Realtime Clock</Description><StartTime><Timestamp dt:dt=""int"">0</Timestamp><DateUtc dt:dt=""string"">2022-09-05T15:12:11Z</DateUtc></StartTime><FrequencyChanges><FrequencyChange><Frequency dt:dt=""r8"">3312890</Frequency><Timestamp dt:dt=""r8"">100458250221</Timestamp><Current dt:dt=""r8"">0</Current><DateUtc dt:dt=""string"">2022-09-05T15:12:11Z</DateUtc></FrequencyChange></FrequencyChanges></Clock>\n";TMS_Ibrahim-38-4;7503;100561;1;;1674639429;2010242;2010242;09/05/2022;05/09/2022 15:12;17:12:11;2010147;0;;-999999;25;19249;0;1;1713;20962;1;1;1;2;1;0;1;BlockProcFischi;BlockList;1;75;0;;-999999;13;23100;0;1;1060;24160;1;1;1;1;ProcFischi1;ListBlockFischi;5;1;1;0;0;5;Po4_B;225;4;ug;5;2;51;1;5;4;1;TrialProc;2058;1337;Po4_B;222;1490;1712;ListFischi1;0;;2;203;57812;7;151;3392;61204;256;1;1520;1;1706;563;1264;1;1
TMS_Ibrahim;38;4;"<?xml version=""1.0""?>\n<Clock xmlns:dt=""urn:schemas-microsoft-com:datatypes""><Description dt:dt=""string"">E-Prime Primary Realtime Clock</Description><StartTime><Timestamp dt:dt=""int"">0</Timestamp><DateUtc dt:dt=""string"">2022-09-05T15:12:11Z</DateUtc></StartTime><FrequencyChanges><FrequencyChange><Frequency dt:dt=""r8"">3312890</Frequency><Timestamp dt:dt=""r8"">100458250221</Timestamp><Current dt:dt=""r8"">0</Current><DateUtc dt:dt=""string"">2022-09-05T15:12:11Z</DateUtc></FrequencyChange></FrequencyChanges></Clock>\n";TMS_Ibrahim-38-4;7503;100561;1;;1674639429;2010242;2010242;09/05/2022;05/09/2022 15:12;17:12:11;2010147;0;;-999999;25;19249;0;1;1713;20962;1;1;1;2;1;0;1;BlockProcFischi;BlockList;1;75;0;;-999999;13;23100;0;1;1060;24160;1;1;1;1;ProcFischi1;ListBlockFischi;6;1;2;0;0;5;Pr5_B;225;1;op;5;2;9;1;6;1;0;TrialProc;1289;675;Pr5_B;125;1400;1274;ListFischi1;0;;2;203;65270;13;15;1438;66708;334;1;1438;1;2076;572;1104;1;1
TMS_Ibrahim;38;4;"<?xml version=""1.0""?>\n<Clock xmlns:dt=""urn:schemas-microsoft-com:datatypes""><Description dt:dt=""string"">E-Prime Primary Realtime Clock</Description><StartTime><Timestamp dt:dt=""int"">0</Timestamp><DateUtc dt:dt=""string"">2022-09-05T15:12:11Z</DateUtc></StartTime><FrequencyChanges><FrequencyChange><Frequency dt:dt=""r8"">3312890</Frequency><Timestamp dt:dt=""r8"">100458250221</Timestamp><Current dt:dt=""r8"">0</Current><DateUtc dt:dt=""string"">2022-09-05T15:12:11Z</DateUtc></FrequencyChange></FrequencyChanges></Clock>\n";TMS_Ibrahim-38-4;7503;100561;1;;1674639429;2010242;2010242;09/05/2022;05/09/2022 15:12;17:12:11;2010147;0;;-999999;25;19249;0;1;1713;20962;1;1;1;2;1;0;1;BlockProcFischi;BlockList;1;75;0;;-999999;13;23100;0;1;1060;24160;1;1;1;1;ProcFischi1;ListBlockFischi;7;1;2;0;0;3;Pr4_B;250;3;ug;3;2;19;1;7;3;1;TrialProc;2146;676;Pr4_B;240;1489;1249;ListFischi1;0;;2;203;74080;13;13;1524;75604;404;1;1524;1;735;339;1120;1;1
TMS_Ibrahim;38;4;"<?xml version=""1.0""?>\n<Clock xmlns:dt=""urn:schemas-microsoft-com:datatypes""><Description dt:dt=""string"">E-Prime Primary Realtime Clock</Description><StartTime><Timestamp dt:dt=""int"">0</Timestamp><DateUtc dt:dt=""string"">2022-09-05T15:12:11Z</DateUtc></StartTime><FrequencyChanges><FrequencyChange><Frequency dt:dt=""r8"">3312890</Frequency><Timestamp dt:dt=""r8"">100458250221</Timestamp><Current dt:dt=""r8"">0</Current><DateUtc dt:dt=""string"">2022-09-05T15:12:11Z</DateUtc></FrequencyChange></FrequencyChanges></Clock>\n";TMS_Ibrahim-38-4;7503;100561;1;;1674639429;2010242;2010242;09/05/2022;05/09/2022 15:12;17:12:11;2010147;0;;-999999;25;19249;0;1;1713;20962;1;1;1;2;1;0;1;BlockProcFischi;BlockList;1;75;0;;-999999;13;23100;0;1;1060;24160;1;1;1;1;ProcFischi1;ListBlockFischi;8;1;2;1;0;3;Prmod_B;250;3;ug;3;2;32;1;8;3;1;TrialProc;1625;1311;Prmod_B;14;1659;1645;ListFischi1;0;;2;203;82588;8;133;2599;85187;391;1;1687;1;716;579;1296;1;1
TMS_Ibrahim;38;4;"<?xml version=""1.0""?>\n<Clock xmlns:dt=""urn:schemas-microsoft-com:datatypes""><Description dt:dt=""string"">E-Prime Primary Realtime Clock</Description><StartTime><Timestamp dt:dt=""int"">0</Timestamp><DateUtc dt:dt=""string"">2022-09-05T15:12:11Z</DateUtc></StartTime><FrequencyChanges><FrequencyChange><Frequency dt:dt=""r8"">3312890</Frequency><Timestamp dt:dt=""r8"">100458250221</Timestamp><Current dt:dt=""r8"">0</Current><DateUtc dt:dt=""string"">2022-09-05T15:12:11Z</DateUtc></FrequencyChange></FrequencyChanges></Clock>\n";TMS_Ibrahim-38-4;7503;100561;1;;1674639429;2010242;2010242;09/05/2022;05/09/2022 15:12;17:12:11;2010147;0;;-999999;25;19249;0;1;1713;20962;1;1;1;2;1;0;1;BlockProcFischi;BlockList;1;75;0;;-999999;13;23100;0;1;1060;24160;1;1;1;1;ProcFischi1;ListBlockFischi;9;1;1;0;0;5;Po4_B;225;4;ug;5;2;56;1;9;4;1;TrialProc;3194;1345;Po4_B;252;1466;1718;ListFischi1;0;;2;201;90032;15;15;1491;91523;339;1;1491;1;322;412;1152;1;1
TMS_Ibrahim;38;4;"<?xml version=""1.0""?>\n<Clock xmlns:dt=""urn:schemas-microsoft-com:datatypes""><Description dt:dt=""string"">E-Prime Primary Realtime Clock</Description><StartTime><Timestamp dt:dt=""int"">0</Timestamp><DateUtc dt:dt=""string"">2022-09-05T15:12:11Z</DateUtc></StartTime><FrequencyChanges><FrequencyChange><Frequency dt:dt=""r8"">3312890</Frequency><Timestamp dt:dt=""r8"">100458250221</Timestamp><Current dt:dt=""r8"">0</Current><DateUtc dt:dt=""string"">2022-09-05T15:12:11Z</DateUtc></FrequencyChange></FrequencyChanges></Clock>\n";TMS_Ibrahim-38-4;7503;100561;1;;1674639429;2010242;2010242;09/05/2022;05/09/2022 15:12;17:12:11;2010147;0;;-999999;25;19249;0;1;1713;20962;1;1;1;2;1;0;1;BlockProcFischi;BlockList;1;75;0;;-999999;13;23100;0;1;1060;24160;1;1;1;1;ProcFischi1;ListBlockFischi;10;1;2;0;0;5;Pr8_B;200;1;op;5;2;5;1;10;1;0;TrialProc;2974;714;Pr8_B;115;1857;1741;ListFischi1;0;;2;203;98552;11;115;1883;100435;299;1;1883;1;879;407;1584;1;1
TMS_Ibrahim;38;4;"<?xml version=""1.0""?>\n<Clock xmlns:dt=""urn:schemas-microsoft-com:datatypes""><Description dt:dt=""string"">E-Prime Primary Realtime Clock</Description><StartTime><Timestamp dt:dt=""int"">0</Timestamp><DateUtc dt:dt=""string"">2022-09-05T15:12:11Z</DateUtc></StartTime><FrequencyChanges><FrequencyChange><Frequency dt:dt=""r8"">3312890</Frequency><Timestamp dt:dt=""r8"">100458250221</Timestamp><Current dt:dt=""r8"">0</Current><DateUtc dt:dt=""string"">2022-09-05T15:12:11Z</DateUtc></FrequencyChange></FrequencyChanges></Clock>\n";TMS_Ibrahim-38-4;7503;100561;1;;1674639429;2010242;2010242;09/05/2022;05/09/2022 15:12;17:12:11;2010147;0;;-999999;25;19249;0;1;1713;20962;1;1;1;2;1;0;1;BlockProcFischi;BlockList;1;75;0;;-999999;13;23100;0;1;1060;24160;1;1;1;1;ProcFischi1;ListBlockFischi;11;1;2;0;0;5;Pr2_B;175;1;op;5;2;1;1;11;1;0;TrialProc;2154;717;Pr2_B;46;1297;1251;ListFischi1;0;;2;203;107385;15;15;1321;108706;265;1;1321;1;1098;295;1056;1;1
TMS_Ibrahim;38;4;"<?xml version=""1.0""?>\n<Clock xmlns:dt=""urn:schemas-microsoft-com:datatypes""><Description dt:dt=""string"">E-Prime Primary Realtime Clock</Description><StartTime><Timestamp dt:dt=""int"">0</Timestamp><DateUtc dt:dt=""string"">2022-09-05T15:12:11Z</DateUtc></StartTime><FrequencyChanges><FrequencyChange><Frequency dt:dt=""r8"">3312890</Frequency><Timestamp dt:dt=""r8"">100458250221</Timestamp><Current dt:dt=""r8"">0</Current><DateUtc dt:dt=""string"">2022-09-05T15:12:11Z</DateUtc></FrequencyChange></FrequencyChanges></Clock>\n";TMS_Ibrahim-38-4;7503;100561;1;;1674639429;2010242;2010242;09/05/2022;05/09/2022 15:12;17:12:11;2010147;0;;-999999;25;19249;0;1;1713;20962;1;1;1;2;1;0;1;BlockProcFischi;BlockList;1;75;0;;-999999;13;23100;0;1;1060;24160;1;1;1;1;ProcFischi1;ListBlockFischi;12;1;2;0;0;3;Pr4_B;225;3;ug;3;2;29;1;12;3;1;TrialProc;2310;676;Pr4_B;147;1396;1249;ListFischi1;0;;2;203;116357;13;133;1837;118194;365;1;1421;1;1119;269;1056;1;1
TMS_Ibrahim;38;4;"<?xml version=""1.0""?>\n<Clock xmlns:dt=""urn:schemas-microsoft-com:datatypes""><Description dt:dt=""string"">E-Prime Primary Realtime Clock</Description><StartTime><Timestamp dt:dt=""int"">0</Timestamp><DateUtc dt:dt=""string"">2022-09-05T15:12:11Z</DateUtc></StartTime><FrequencyChanges><FrequencyChange><Frequency dt:dt=""r8"">3312890</Frequency><Timestamp dt:dt=""r8"">100458250221</Timestamp><Current dt:dt=""r8"">0</Current><DateUtc dt:dt=""string"">2022-09-05T15:12:11Z</DateUtc></FrequencyChange></FrequencyChanges></Clock>\n";TMS_Ibrahim-38-4;7503;100561;1;;1674639429;2010242;2010242;09/05/2022;05/09/2022 15:12;17:12:11;2010147;0;;-999999;25;19249;0;1;1713;20962;1;1;1;2;1;0;1;BlockProcFischi;BlockList;1;75;0;;-999999;13;23100;0;1;1060;24160;1;1;1;1;ProcFischi1;ListBlockFischi;13;1;2;0;0;3;Pr5_B;200;3;ug;3;2;25;1;13;3;1;TrialProc;2129;676;Pr5_B;157;1435;1277;ListFischi1;0;;2;203;125420;13;133;2101;127521;294;1;1462;1;1319;454;1168;1;1
TMS_Ibrahim;38;4;"<?xml version=""1.0""?>\n<Clock xmlns:dt=""urn:schemas-microsoft-com:datatypes""><Description dt:dt=""string"">E-Prime Primary Realtime Clock</Description><StartTime><Timestamp dt:dt=""int"">0</Timestamp><DateUtc dt:dt=""string"">2022-09-05T15:12:11Z</DateUtc></StartTime><FrequencyChanges><FrequencyChange><Frequency dt:dt=""r8"">3312890</Frequency><Timestamp dt:dt=""r8"">100458250221</Timestamp><Current dt:dt=""r8"">0</Current><DateUtc dt:dt=""string"">2022-09-05T15:12:11Z</DateUtc></FrequencyChange></FrequencyChanges></Clock>\n";TMS_Ibrahim-38-4;7503;100561;1;;1674639429;2010242;2010242;09/05/2022;05/09/2022 15:12;17:12:11;2010147;0;;-999999;25;19249;0;1;1713;20962;1;1;1;2;1;0;1;BlockProcFischi;BlockList;1;75;0;;-999999;13;23100;0;1;1060;24160;1;1;1;1;ProcFischi1;ListBlockFischi;14;1;2;0;0;3;Pr3_B;175;3;ug;3;2;23;1;14;3;1;TrialProc;1979;714;Pr3_B;315;2028;1713;ListFischi1;0;;2;203;134645;11;13;2060;136705;444;1;2060;1;1296;574;1616;1;1
TMS_Ibrahim;38;4;"<?xml version=""1.0""?>\n<Clock xmlns:dt=""urn:schemas-microsoft-com:datatypes""><Description dt:dt=""string"">E-Prime Primary Realtime Clock</Description><StartTime><Timestamp dt:dt=""int"">0</Timestamp><DateUtc dt:dt=""string"">2022-09-05T15:12:11Z</DateUtc></StartTime><FrequencyChanges><FrequencyChange><Frequency dt:dt=""r8"">3312890</Frequency><Timestamp dt:dt=""r8"">100458250221</Timestamp><Current dt:dt=""r8"">0</Current><DateUtc dt:dt=""string"">2022-09-05T15:12:11Z</DateUtc></FrequencyChange></FrequencyChanges></Clock>\n";TMS_Ibrahim-38-4;7503;100561;1;;1674639429;2010242;2010242;09/05/2022;05/09/2022 15:12;17:12:11;2010147;0;;-999999;25;19249;0;1;1713;20962;1;1;1;2;1;0;1;BlockProcFischi;BlockList;1;75;0;;-999999;13;23100;0;1;1060;24160;1;1;1;1;ProcFischi1;ListBlockFischi;15;1;2;0;0;5;Pr4_B;150;1;op;5;2;8;1;15;1;0;TrialProc;1344;676;Pr4_B;97;1348;1251;ListFischi1;0;;2;203;142412;14;151;3333;145745;229;1;1381;1;1515;528;1152;1;1
TMS_Ibrahim;38;4;"<?xml version=""1.0""?>\n<Clock xmlns:dt=""urn:schemas-microsoft-com:datatypes""><Description dt:dt=""string"">E-Prime Primary Realtime Clock</Description><StartTime><Timestamp dt:dt=""int"">0</Timestamp><DateUtc dt:dt=""string"">2022-09-05T15:12:11Z</DateUtc></StartTime><FrequencyChanges><FrequencyChange><Frequency dt:dt=""r8"">3312890</Frequency><Timestamp dt:dt=""r8"">100458250221</Timestamp><Current dt:dt=""r8"">0</Current><DateUtc dt:dt=""string"">2022-09-05T15:12:11Z</DateUtc></FrequencyChange></FrequencyChanges></Clock>\n";TMS_Ibrahim-38-4;7503;100561;1;;1674639429;2010242;2010242;09/05/2022;05/09/2022 15:12;17:12:11;2010147;0;;-999999;25;19249;0;1;1713;20962;1;1;1;2;1;0;1;BlockProcFischi;BlockList;1;75;0;;-999999;13;23100;0;1;1060;24160;1;1;1;1;ProcFischi1;ListBlockFischi;16;1;1;0;1;5;Po5_B;225;4;ug;5;2;52;1;16;4;1;TrialProc;3701;981;Po5_B;95;1380;1475;ListFischi1;0;;2;201;149691;12;155;2006;151697;406;1;1414;1;558;556;1008;1;1
TMS_Ibrahim;38;4;"<?xml version=""1.0""?>\n<Clock xmlns:dt=""urn:schemas-microsoft-com:datatypes""><Description dt:dt=""string"">E-Prime Primary Realtime Clock</Description><StartTime><Timestamp dt:dt=""int"">0</Timestamp><DateUtc dt:dt=""string"">2022-09-05T15:12:11Z</DateUtc></StartTime><FrequencyChanges><FrequencyChange><Frequency dt:dt=""r8"">3312890</Frequency><Timestamp dt:dt=""r8"">100458250221</Timestamp><Current dt:dt=""r8"">0</Current><DateUtc dt:dt=""string"">2022-09-05T15:12:11Z</DateUtc></FrequencyChange></FrequencyChanges></Clock>\n";TMS_Ibrahim-38-4;7503;100561;1;;1674639429;2010242;2010242;09/05/2022;05/09/2022 15:12;17:12:11;2010147;0;;-999999;25;19249;0;1;1713;20962;1;1;1;2;1;0;1;BlockProcFischi;BlockList;1;75;0;;-999999;13;23100;0;1;1060;24160;1;1;1;1;ProcFischi1;ListBlockFischi;17;1;2;0;1;3;Pr8_B;175;3;ug;3;2;26;1;17;3;1;TrialProc;1715;712;Pr8_B;62;1677;1738;ListFischi1;0;;2;203;157585;8;13;1711;159296;191;1;1711;1;817;447;1520;1;1
TMS_Ibrahim;38;4;"<?xml version=""1.0""?>\n<Clock xmlns:dt=""urn:schemas-microsoft-com:datatypes""><Description dt:dt=""string"">E-Prime Primary Realtime Clock</Description><StartTime><Timestamp dt:dt=""int"">0</Timestamp><DateUtc dt:dt=""string"">2022-09-05T15:12:11Z</DateUtc></StartTime><FrequencyChanges><FrequencyChange><Frequency dt:dt=""r8"">3312890</Frequency><Timestamp dt:dt=""r8"">100458250221</Timestamp><Current dt:dt=""r8"">0</Current><DateUtc dt:dt=""string"">2022-09-05T15:12:11Z</DateUtc></FrequencyChange></FrequencyChanges></Clock>\n";TMS_Ibrahim-38-4;7503;100561;1;;1674639429;2010242;2010242;09/05/2022;05/09/2022 15:12;17:12:11;2010147;0;;-999999;25;19249;0;1;1713;20962;1;1;1;2;1;0;1;BlockProcFischi;BlockList;1;75;0;;-999999;13;23100;0;1;1060;24160;1;1;1;1;ProcFischi1;ListBlockFischi;18;1;2;0;0;3;Pr2_B;150;3;ug;3;2;27;1;18;3;1;TrialProc;2532;717;Pr2_B;44;1294;1249;ListFischi1;0;;2;203;165751;12;133;2057;167808;185;1;1321;1;1182;361;1136;1;1
TMS_Ibrahim;38;4;"<?xml version=""1.0""?>\n<Clock xmlns:dt=""urn:schemas-microsoft-com:datatypes""><Description dt:dt=""string"">E-Prime Primary Realtime Clock</Description><StartTime><Timestamp dt:dt=""int"">0</Timestamp><DateUtc dt:dt=""string"">2022-09-05T15:12:11Z</DateUtc></StartTime><FrequencyChanges><FrequencyChange><Frequency dt:dt=""r8"">3312890</Frequency><Timestamp dt:dt=""r8"">100458250221</Timestamp><Current dt:dt=""r8"">0</Current><DateUtc dt:dt=""string"">2022-09-05T15:12:11Z</DateUtc></FrequencyChange></FrequencyChanges></Clock>\n";TMS_Ibrahim-38-4;7503;100561;1;;1674639429;2010242;2010242;09/05/2022;05/09/2022 15:12;17:12:11;2010147;0;;-999999;25;19249;0;1;1713;20962;1;1;1;2;1;0;1;BlockProcFischi;BlockList;1;75;0;;-999999;13;23100;0;1;1060;24160;1;1;1;1;ProcFischi1;ListBlockFischi;19;1;1;1;0;5;Pomod_B;200;4;ug;5;2;64;1;19;4;1;TrialProc;2509;1314;Pomod_B;481;2154;1673;ListFischi1;0;;2;201;173297;10;15;2175;175472;335;1;2175;1;1633;388;1840;1;1
TMS_Ibrahim;38;4;"<?xml version=""1.0""?>\n<Clock xmlns:dt=""urn:schemas-microsoft-com:datatypes""><Description dt:dt=""string"">E-Prime Primary Realtime Clock</Description><StartTime><Timestamp dt:dt=""int"">0</Timestamp><DateUtc dt:dt=""string"">2022-09-05T15:12:11Z</DateUtc></StartTime><FrequencyChanges><FrequencyChange><Frequency dt:dt=""r8"">3312890</Frequency><Timestamp dt:dt=""r8"">100458250221</Timestamp><Current dt:dt=""r8"">0</Current><DateUtc dt:dt=""string"">2022-09-05T15:12:11Z</DateUtc></FrequencyChange></FrequencyChanges></Clock>\n";TMS_Ibrahim-38-4;7503;100561;1;;1674639429;2010242;2010242;09/05/2022;05/09/2022 15:12;17:12:11;2010147;0;;-999999;25;19249;0;1;1713;20962;1;1;1;2;1;0;1;BlockProcFischi;BlockList;1;75;0;;-999999;13;23100;0;1;1060;24160;1;1;1;1;ProcFischi1;ListBlockFischi;20;1;2;0;0;3;Pr2_B;125;3;ug;3;2;22;1;20;3;1;TrialProc;1313;711;Pr2_B;14;1258;1244;ListFischi1;0;;2;203;181455;9;133;1536;182991;352;1;1280;1;2872;366;928;1;1
TMS_Ibrahim;38;4;"<?xml version=""1.0""?>\n<Clock xmlns:dt=""urn:schemas-microsoft-com:datatypes""><Description dt:dt=""string"">E-Prime Primary Realtime Clock</Description><StartTime><Timestamp dt:dt=""int"">0</Timestamp><DateUtc dt:dt=""string"">2022-09-05T15:12:11Z</DateUtc></StartTime><FrequencyChanges><FrequencyChange><Frequency dt:dt=""r8"">3312890</Frequency><Timestamp dt:dt=""r8"">100458250221</Timestamp><Current dt:dt=""r8"">0</Current><DateUtc dt:dt=""string"">2022-09-05T15:12:11Z</DateUtc></FrequencyChange></FrequencyChanges></Clock>\n";TMS_Ibrahim-38-4;7503;100561;1;;1674639429;2010242;2010242;09/05/2022;05/09/2022 15:12;17:12:11;2010147;0;;-999999;25;19249;0;1;1713;20962;1;1;1;2;1;0;1;BlockProcFischi;BlockList;1;75;0;;-999999;13;23100;0;1;1060;24160;1;1;1;1;ProcFischi1;ListBlockFischi;21;1;2;0;0;5;Pr3_B;125;1;op;5;2;12;1;21;1;0;TrialProc;1842;716;Pr3_B;46;1668;1714;ListFischi1;0;;2;203;190796;11;15;1699;192495;291;1;1699;1;1079;521;1408;1;1
TMS_Ibrahim;38;4;"<?xml version=""1.0""?>\n<Clock xmlns:dt=""urn:schemas-microsoft-com:datatypes""><Description dt:dt=""string"">E-Prime Primary Realtime Clock</Description><StartTime><Timestamp dt:dt=""int"">0</Timestamp><DateUtc dt:dt=""string"">2022-09-05T15:12:11Z</DateUtc></StartTime><FrequencyChanges><FrequencyChange><Frequency dt:dt=""r8"">3312890</Frequency><Timestamp dt:dt=""r8"">100458250221</Timestamp><Current dt:dt=""r8"">0</Current><DateUtc dt:dt=""string"">2022-09-05T15:12:11Z</DateUtc></FrequencyChange></FrequencyChanges></Clock>\n";TMS_Ibrahim-38-4;7503;100561;1;;1674639429;2010242;2010242;09/05/2022;05/09/2022 15:12;17:12:11;2010147;0;;-999999;25;19249;0;1;1713;20962;1;1;1;2;1;0;1;BlockProcFischi;BlockList;1;75;0;;-999999;13;23100;0;1;1060;24160;1;1;1;1;ProcFischi1;ListBlockFischi;22;1;1;0;1;5;Po2_B;200;4;ug;5;2;54;1;22;4;1;TrialProc;2333;1581;Po2_B;104;1702;1807;ListFischi1;0;;2;203;199179;11;151;3716;202895;324;1;1732;1;774;504;1408;1;1
TMS_Ibrahim;38;4;"<?xml version=""1.0""?>\n<Clock xmlns:dt=""urn:schemas-microsoft-com:datatypes""><Description dt:dt=""string"">E-Prime Primary Realtime Clock</Description><StartTime><Timestamp dt:dt=""int"">0</Timestamp><DateUtc dt:dt=""string"">2022-09-05T15:12:11Z</DateUtc></StartTime><FrequencyChanges><FrequencyChange><Frequency dt:dt=""r8"">3312890</Frequency><Timestamp dt:dt=""r8"">100458250221</Timestamp><Current dt:dt=""r8"">0</Current><DateUtc dt:dt=""string"">2022-09-05T15:12:11Z</DateUtc></FrequencyChange></FrequencyChanges></Clock>\n";TMS_Ibrahim-38-4;7503;100561;1;;1674639429;2010242;2010242;09/05/2022;05/09/2022 15:12;17:12:11;2010147;0;;-999999;25;19249;0;1;1713;20962;1;1;1;2;1;0;1;BlockProcFischi;BlockList;1;75;0;;-999999;13;23100;0;1;1060;24160;1;1;1;1;ProcFischi1;ListBlockFischi;23;1;1;0;0;5;Po3_B;175;4;ug;5;2;60;1;23;4;1;TrialProc;1405;1309;Po3_B;20;1596;1576;ListFischi1;0;;2;201;206687;7;15;1631;208318;304;1;1631;1;1476;317;1327;1;1
TMS_Ibrahim;38;4;"<?xml version=""1.0""?>\n<Clock xmlns:dt=""urn:schemas-microsoft-com:datatypes""><Description dt:dt=""string"">E-Prime Primary Realtime Clock</Description><StartTime><Timestamp dt:dt=""int"">0</Timestamp><DateUtc dt:dt=""string"">2022-09-05T15:12:11Z</DateUtc></StartTime><FrequencyChanges><FrequencyChange><Frequency dt:dt=""r8"">3312890</Frequency><Timestamp dt:dt=""r8"">100458250221</Timestamp><Current dt:dt=""r8"">0</Current><DateUtc dt:dt=""string"">2022-09-05T15:12:11Z</DateUtc></FrequencyChange></FrequencyChanges></Clock>\n";TMS_Ibrahim-38-4;7503;100561;1;;1674639429;2010242;2010242;09/05/2022;05/09/2022 15:12;17:12:11;2010147;0;;-999999;25;19249;0;1;1713;20962;1;1;1;2;1;0;1;BlockProcFischi;BlockList;1;75;0;;-999999;13;23100;0;1;1060;24160;1;1;1;1;ProcFischi1;ListBlockFischi;24;1;2;0;0;3;Pr3_B;100;3;ug;3;2;28;1;24;3;1;TrialProc;1733;710;Pr3_B;154;1556;1709;ListFischi1;0;;2;203;214511;6;13;1583;216094;271;1;1583;1;867;407;1312;1;1
TMS_Ibrahim;38;4;"<?xml version=""1.0""?>\n<Clock xmlns:dt=""urn:schemas-microsoft-com:datatypes""><Description dt:dt=""string"">E-Prime Primary Realtime Clock</Description><StartTime><Timestamp dt:dt=""int"">0</Timestamp><DateUtc dt:dt=""string"">2022-09-05T15:12:11Z</DateUtc></StartTime><FrequencyChanges><FrequencyChange><Frequency dt:dt=""r8"">3312890</Frequency><Timestamp dt:dt=""r8"">100458250221</Timestamp><Current dt:dt=""r8"">0</Current><DateUtc dt:dt=""string"">2022-09-05T15:12:11Z</DateUtc></FrequencyChange></FrequencyChanges></Clock>\n";TMS_Ibrahim-38-4;7503;100561;1;;1674639429;2010242;2010242;09/05/2022;05/09/2022 15:12;17:12:11;2010147;0;;-999999;25;19249;0;1;1713;20962;1;1;1;2;1;0;1;BlockProcFischi;BlockList;1;75;0;;-999999;13;23100;0;1;1060;24160;1;1;1;1;ProcFischi1;ListBlockFischi;25;1;2;0;1;3;Pr5_B;100;3;ug;3;2;30;1;25;3;1;TrialProc;4273;676;Pr5_B;248;1523;1275;ListFischi1;0;;2;203;223461;13;13;1545;225006;537;1;1545;1;1014;385;1008;1;1
TMS_Ibrahim;38;4;"<?xml version=""1.0""?>\n<Clock xmlns:dt=""urn:schemas-microsoft-com:datatypes""><Description dt:dt=""string"">E-Prime Primary Realtime Clock</Description><StartTime><Timestamp dt:dt=""int"">0</Timestamp><DateUtc dt:dt=""string"">2022-09-05T15:12:11Z</DateUtc></StartTime><FrequencyChanges><FrequencyChange><Frequency dt:dt=""r8"">3312890</Frequency><Timestamp dt:dt=""r8"">100458250221</Timestamp><Current dt:dt=""r8"">0</Current><DateUtc dt:dt=""string"">2022-09-05T15:12:11Z</DateUtc></FrequencyChange></FrequencyChanges></Clock>\n";TMS_Ibrahim-38-4;7503;100561;1;;1674639429;2010242;2010242;09/05/2022;05/09/2022 15:12;17:12:11;2010147;0;;-999999;25;19249;0;1;1713;20962;1;1;1;2;1;0;1;BlockProcFischi;BlockList;1;75;0;;-999999;13;23100;0;1;1060;24160;1;1;1;1;ProcFischi1;ListBlockFischi;26;1;2;0;2;3;Pr2_B;100;3;ug;3;2;17;1;26;3;1;TrialProc;1064;713;Pr2_B;126;1373;1247;ListFischi1;0;;2;203;232914;10;1333;2187;235101;444;1;1403;1;2038;243;959;1;1
TMS_Ibrahim;38;4;"<?xml version=""1.0""?>\n<Clock xmlns:dt=""urn:schemas-microsoft-com:datatypes""><Description dt:dt=""string"">E-Prime Primary Realtime Clock</Description><StartTime><Timestamp dt:dt=""int"">0</Timestamp><DateUtc dt:dt=""string"">2022-09-05T15:12:11Z</DateUtc></StartTime><FrequencyChanges><FrequencyChange><Frequency dt:dt=""r8"">3312890</Frequency><Timestamp dt:dt=""r8"">100458250221</Timestamp><Current dt:dt=""r8"">0</Current><DateUtc dt:dt=""string"">2022-09-05T15:12:11Z</DateUtc></FrequencyChange></FrequencyChanges></Clock>\n";TMS_Ibrahim-38-4;7503;100561;1;;1674639429;2010242;2010242;09/05/2022;05/09/2022 15:12;17:12:11;2010147;0;;-999999;25;19249;0;1;1713;20962;1;1;1;2;1;0;1;BlockProcFischi;BlockList;1;75;0;;-999999;13;23100;0;1;1060;24160;1;1;1;1;ProcFischi1;ListBlockFischi;27;1;2;0;0;5;Pr8_B;100;1;op;5;2;10;1;27;1;0;TrialProc;2203;711;Pr8_B;23;1714;1737;ListFischi1;0;;2;203;241153;7;15;1740;242893;412;1;1740;1;1009;203;1328;1;1
TMS_Ibrahim;38;4;"<?xml version=""1.0""?>\n<Clock xmlns:dt=""urn:schemas-microsoft-com:datatypes""><Description dt:dt=""string"">E-Prime Primary Realtime Clock</Description><StartTime><Timestamp dt:dt=""int"">0</Timestamp><DateUtc dt:dt=""string"">2022-09-05T15:12:11Z</DateUtc></StartTime><FrequencyChanges><FrequencyChange><Frequency dt:dt=""r8"">3312890</Frequency><Timestamp dt:dt=""r8"">100458250221</Timestamp><Current dt:dt=""r8"">0</Current><DateUtc dt:dt=""string"">2022-09-05T15:12:11Z</DateUtc></FrequencyChange></FrequencyChanges></Clock>\n";TMS_Ibrahim-38-4;7503;100561;1;;1674639429;2010242;2010242;09/05/2022;05/09/2022 15:12;17:12:11;2010147;0;;-999999;25;19249;0;1;1713;20962;1;1;1;2;1;0;1;BlockProcFischi;BlockList;1;75;0;;-999999;13;23100;0;1;1060;24160;1;1;1;1;ProcFischi1;ListBlockFischi;28;1;2;0;0;5;Pr3_B;75;1;op;5;2;7;1;28;1;0;TrialProc;3158;711;Pr3_B;81;1630;1711;ListFischi1;0;;2;203;249815;9;15;1654;251469;198;1;1654;1;1545;201;1456;1;1
TMS_Ibrahim;38;4;"<?xml version=""1.0""?>\n<Clock xmlns:dt=""urn:schemas-microsoft-com:datatypes""><Description dt:dt=""string"">E-Prime Primary Realtime Clock</Description><StartTime><Timestamp dt:dt=""int"">0</Timestamp><DateUtc dt:dt=""string"">2022-09-05T15:12:11Z</DateUtc></StartTime><FrequencyChanges><FrequencyChange><Frequency dt:dt=""r8"">3312890</Frequency><Timestamp dt:dt=""r8"">100458250221</Timestamp><Current dt:dt=""r8"">0</Current><DateUtc dt:dt=""string"">2022-09-05T15:12:11Z</DateUtc></FrequencyChange></FrequencyChanges></Clock>\n";TMS_Ibrahim-38-4;7503;100561;1;;1674639429;2010242;2010242;09/05/2022;05/09/2022 15:12;17:12:11;2010147;0;;-999999;25;19249;0;1;1713;20962;1;1;1;2;1;0;1;BlockProcFischi;BlockList;1;75;0;;-999999;13;23100;0;1;1060;24160;1;1;1;1;ProcFischi1;ListBlockFischi;29;1;2;1;0;5;Prmod_B;75;1;op;5;2;16;1;29;1;0;TrialProc;3133;1319;Prmod_B;49;1701;1652;ListFischi1;0;;2;203;260057;16;15;1731;261788;419;1;1731;1;2552;309;1312;1;1
TMS_Ibrahim;38;4;"<?xml version=""1.0""?>\n<Clock xmlns:dt=""urn:schemas-microsoft-com:datatypes""><Description dt:dt=""string"">E-Prime Primary Realtime Clock</Description><StartTime><Timestamp dt:dt=""int"">0</Timestamp><DateUtc dt:dt=""string"">2022-09-05T15:12:11Z</DateUtc></StartTime><FrequencyChanges><FrequencyChange><Frequency dt:dt=""r8"">3312890</Frequency><Timestamp dt:dt=""r8"">100458250221</Timestamp><Current dt:dt=""r8"">0</Current><DateUtc dt:dt=""string"">2022-09-05T15:12:11Z</DateUtc></FrequencyChange></FrequencyChanges></Clock>\n";TMS_Ibrahim-38-4;7503;100561;1;;1674639429;2010242;2010242;09/05/2022;05/09/2022 15:12;17:12:11;2010147;0;;-999999;25;19249;0;1;1713;20962;1;1;1;2;1;0;1;BlockProcFischi;BlockList;1;75;0;;-999999;13;23100;0;1;1060;24160;1;1;1;1;ProcFischi1;ListBlockFischi;30;1;1;0;0;3;Po4_B;250;2;op;3;2;45;1;30;2;0;TrialProc;1105;1341;Po4_B;135;1580;1715;ListFischi1;0;;2;203;270231;11;13;1605;271836;341;1;1605;1;2482;598;1264;1;1
TMS_Ibrahim;38;4;"<?xml version=""1.0""?>\n<Clock xmlns:dt=""urn:schemas-microsoft-com:datatypes""><Description dt:dt=""string"">E-Prime Primary Realtime Clock</Description><StartTime><Timestamp dt:dt=""int"">0</Timestamp><DateUtc dt:dt=""string"">2022-09-05T15:12:11Z</DateUtc></StartTime><FrequencyChanges><FrequencyChange><Frequency dt:dt=""r8"">3312890</Frequency><Timestamp dt:dt=""r8"">100458250221</Timestamp><Current dt:dt=""r8"">0</Current><DateUtc dt:dt=""string"">2022-09-05T15:12:11Z</DateUtc></FrequencyChange></FrequencyChanges></Clock>\n";TMS_Ibrahim-38-4;7503;100561;1;;1674639429;2010242;2010242;09/05/2022;05/09/2022 15:12;17:12:11;2010147;0;;-999999;25;19249;0;1;1713;20962;1;1;1;2;1;0;1;BlockProcFischi;BlockList;1;75;0;;-999999;13;23100;0;1;1060;24160;1;1;1;1;ProcFischi1;ListBlockFischi;31;1;2;0;0;3;Pr3_B;125;3;ug;3;2;18;1;31;3;1;TrialProc;2318;713;Pr3_B;206;1919;1713;ListFischi1;0;;2;203;278856;9;13;1940;280796;420;1;1940;1;1474;567;1520;1;1
TMS_Ibrahim;38;4;"<?xml version=""1.0""?>\n<Clock xmlns:dt=""urn:schemas-microsoft-com:datatypes""><Description dt:dt=""string"">E-Prime Primary Realtime Clock</Description><StartTime><Timestamp dt:dt=""int"">0</Timestamp><DateUtc dt:dt=""string"">2022-09-05T15:12:11Z</DateUtc></StartTime><FrequencyChanges><FrequencyChange><Frequency dt:dt=""r8"">3312890</Frequency><Timestamp dt:dt=""r8"">100458250221</Timestamp><Current dt:dt=""r8"">0</Current><DateUtc dt:dt=""string"">2022-09-05T15:12:11Z</DateUtc></FrequencyChange></FrequencyChanges></Clock>\n";TMS_Ibrahim-38-4;7503;100561;1;;1674639429;2010242;2010242;09/05/2022;05/09/2022 15:12;17:12:11;2010147;0;;-999999;25;19249;0;1;1713;20962;1;1;1;2;1;0;1;BlockProcFischi;BlockList;1;75;0;;-999999;13;23100;0;1;1060;24160;1;1;1;1;ProcFischi1;ListBlockFischi;32;1;1;1;0;3;Pomod_B;225;2;op;3;2;48;1;32;2;0;TrialProc;2396;1314;Pomod_B;95;1770;1674;ListFischi1;0;;2;203;288917;11;13;1798;290715;374;1;1798;1;2429;353;1424;1;1
TMS_Ibrahim;38;4;"<?xml version=""1.0""?>\n<Clock xmlns:dt=""urn:schemas-microsoft-com:datatypes""><Description dt:dt=""string"">E-Prime Primary Realtime Clock</Description><StartTime><Timestamp dt:dt=""int"">0</Timestamp><DateUtc dt:dt=""string"">2022-09-05T15:12:11Z</DateUtc></StartTime><FrequencyChanges><FrequencyChange><Frequency dt:dt=""r8"">3312890</Frequency><Timestamp dt:dt=""r8"">100458250221</Timestamp><Current dt:dt=""r8"">0</Current><DateUtc dt:dt=""string"">2022-09-05T15:12:11Z</DateUtc></FrequencyChange></FrequencyChanges></Clock>\n";TMS_Ibrahim-38-4;7503;100561;1;;1674639429;2010242;2010242;09/05/2022;05/09/2022 15:12;17:12:11;2010147;0;;-999999;25;19249;0;1;1713;20962;1;1;1;2;1;0;1;BlockProcFischi;BlockList;1;75;0;;-999999;13;23100;0;1;1060;24160;1;1;1;1;ProcFischi1;ListBlockFischi;33;1;1;0;0;3;Po5_B;200;2;op;3;2;36;1;33;2;0;TrialProc;2016;985;Po5_B;2;1477;1478;ListFischi1;0;;2;203;298855;16;1333;1860;300715;356;1;1508;1;2147;222;1152;1;1
TMS_Ibrahim;38;4;"<?xml version=""1.0""?>\n<Clock xmlns:dt=""urn:schemas-microsoft-com:datatypes""><Description dt:dt=""string"">E-Prime Primary Realtime Clock</Description><StartTime><Timestamp dt:dt=""int"">0</Timestamp><DateUtc dt:dt=""string"">2022-09-05T15:12:11Z</DateUtc></StartTime><FrequencyChanges><FrequencyChange><Frequency dt:dt=""r8"">3312890</Frequency><Timestamp dt:dt=""r8"">100458250221</Timestamp><Current dt:dt=""r8"">0</Current><DateUtc dt:dt=""string"">2022-09-05T15:12:11Z</DateUtc></FrequencyChange></FrequencyChanges></Clock>\n";TMS_Ibrahim-38-4;7503;100561;1;;1674639429;2010242;2010242;09/05/2022;05/09/2022 15:12;17:12:11;2010147;0;;-999999;25;19249;0;1;1713;20962;1;1;1;2;1;0;1;BlockProcFischi;BlockList;1;75;0;;-999999;13;23100;0;1;1060;24160;1;1;1;1;ProcFischi1;ListBlockFischi;34;1;2;0;0;5;Pr4_B;50;1;op;5;2;13;1;34;1;0;TrialProc;2318;674;Pr4_B;117;1363;1247;ListFischi1;0;;2;203;307416;11;15;1395;308811;307;1;1395;1;3069;427;1088;1;1
TMS_Ibrahim;38;4;"<?xml version=""1.0""?>\n<Clock xmlns:dt=""urn:schemas-microsoft-com:datatypes""><Description dt:dt=""string"">E-Prime Primary Realtime Clock</Description><StartTime><Timestamp dt:dt=""int"">0</Timestamp><DateUtc dt:dt=""string"">2022-09-05T15:12:11Z</DateUtc></StartTime><FrequencyChanges><FrequencyChange><Frequency dt:dt=""r8"">3312890</Frequency><Timestamp dt:dt=""r8"">100458250221</Timestamp><Current dt:dt=""r8"">0</Current><DateUtc dt:dt=""string"">2022-09-05T15:12:11Z</DateUtc></FrequencyChange></FrequencyChanges></Clock>\n";TMS_Ibrahim-38-4;7503;100561;1;;1674639429;2010242;2010242;09/05/2022;05/09/2022 15:12;17:12:11;2010147;0;;-999999;25;19249;0;1;1713;20962;1;1;1;2;1;0;1;BlockProcFischi;BlockList;1;75;0;;-999999;13;23100;0;1;1060;24160;1;1;1;1;ProcFischi1;ListBlockFischi;35;1;1;0;0;3;Po2_B;175;2;op;3;2;33;1;35;2;0;TrialProc;2178;1581;Po2_B;24;1831;1806;ListFischi1;0;;2;203;316533;11;13;1861;318394;293;1;1861;1;1167;329;1568;1;1
TMS_Ibrahim;38;4;"<?xml version=""1.0""?>\n<Clock xmlns:dt=""urn:schemas-microsoft-com:datatypes""><Description dt:dt=""string"">E-Prime Primary Realtime Clock</Description><StartTime><Timestamp dt:dt=""int"">0</Timestamp><DateUtc dt:dt=""string"">2022-09-05T15:12:11Z</DateUtc></StartTime><FrequencyChanges><FrequencyChange><Frequency dt:dt=""r8"">3312890</Frequency><Timestamp dt:dt=""r8"">100458250221</Timestamp><Current dt:dt=""r8"">0</Current><DateUtc dt:dt=""string"">2022-09-05T15:12:11Z</DateUtc></FrequencyChange></FrequencyChanges></Clock>\n";TMS_Ibrahim-38-4;7503;100561;1;;1674639429;2010242;2010242;09/05/2022;05/09/2022 15:12;17:12:11;2010147;0;;-999999;25;19249;0;1;1713;20962;1;1;1;2;1;0;1;BlockProcFischi;BlockList;1;75;0;;-999999;13;23100;0;1;1060;24160;1;1;1;1;ProcFischi1;ListBlockFischi;36;1;1;0;0;3;Po8_B;150;2;op;3;2;37;1;36;2;0;TrialProc;2070;1241;Po8_B;27;1603;1575;ListFischi1;0;;2;203;325600;7;13;1626;327226;394;1;1626;1;1618;409;1232;1;1
TMS_Ibrahim;38;4;"<?xml version=""1.0""?>\n<Clock xmlns:dt=""urn:schemas-microsoft-com:datatypes""><Description dt:dt=""string"">E-Prime Primary Realtime Clock</Description><StartTime><Timestamp dt:dt=""int"">0</Timestamp><DateUtc dt:dt=""string"">2022-09-05T15:12:11Z</DateUtc></StartTime><FrequencyChanges><FrequencyChange><Frequency dt:dt=""r8"">3312890</Frequency><Timestamp dt:dt=""r8"">100458250221</Timestamp><Current dt:dt=""r8"">0</Current><DateUtc dt:dt=""string"">2022-09-05T15:12:11Z</DateUtc></FrequencyChange></FrequencyChanges></Clock>\n";TMS_Ibrahim-38-4;7503;100561;1;;1674639429;2010242;2010242;09/05/2022;05/09/2022 15:12;17:12:11;2010147;0;;-999999;25;19249;0;1;1713;20962;1;1;1;2;1;0;1;BlockProcFischi;BlockList;1;75;0;;-999999;13;23100;0;1;1060;24160;1;1;1;1;ProcFischi1;ListBlockFischi;37;1;2;1;1;5;Prmod_B;50;1;op;5;2;15;1;37;1;0;TrialProc;2524;1312;Prmod_B;97;1742;1645;ListFischi1;0;;2;203;334554;9;15;1776;336330;416;1;1776;1;2257;440;1360;1;1
