ExperimentName;Subject;Session;Clock.Information;DataFile.Basename;Display.RefreshRate;ExperimentVersion;Group;Name;RandomSeed;RuntimeVersion;RuntimeVersionExpected;SessionDate;SessionStartDateTimeUtc;SessionTime;StudioVersion;SyncEprimeKinB1.ACC;SyncEprimeKinB1.CRESP;SyncEprimeKinB1.DurationError;SyncEprimeKinB1.OnsetDelay;SyncEprimeKinB1.OnsetTime;SyncEprimeKinB1.OnsetToOnsetTime;SyncEprimeKinB1.RESP;SyncEprimeKinB1.RT;SyncEprimeKinB1.RTTime;Block;BlockINT_0Fischi_1Suoni;BlockList;BlockList.Cycle;BlockList.Sample;ContatoreSuoni;NumSuono;Procedure[Block];Running[Block];Suonilist;SuonoFinSoglia;SyncEprimeKinFischi1.ACC;SyncEprimeKinFischi1.CRESP;SyncEprimeKinFischi1.DurationError;SyncEprimeKinFischi1.OnsetDelay;SyncEprimeKinFischi1.OnsetTime;SyncEprimeKinFischi1.OnsetToOnsetTime;SyncEprimeKinFischi1.RESP;SyncEprimeKinFischi1.RT;SyncEprimeKinFischi1.RTTime;Trial;ListBlockFischi;ListBlockFischi.Cycle;ListBlockFischi.Sample;Procedure[Trial];Running[Trial];SubTrial;AccSogg1;Avatar_Giu1_Su2;CatchTrial_CORR;ContatoreFinestraSoglia;CorrectResponse;File_Name;FinestraSoglia;IdcondEEG;Istruzione;KeySoggetto1;KeySoggetto2;ListFischi1;ListFischi1.Cycle;ListFischi1.Sample;NumeroSuono;OP_UG;Procedure[SubTrial];Resoconto.RT;RTChange;RTimage;RTNetto;RTSubj;RTTouch;Running[SubTrial];StartGo.ACC;StartGo.CRESP;StartGo.DurationError;StartGo.OnsetDelay;StartGo.OnsetTime;StartGo.OnsetToOnsetTime;StartGo.RESP;StartGo.RT;StartGo.RTTime;StartSoggetto1;StartSoggetto2;StopSoggetto1;StopSoggetto2;StopTrial.RT;tempo;TMSoggetto1;ValiditaTrial;Vincitore
TMS_Ibrahim;39;2;"<?xml version=""1.0""?>\n<Clock xmlns:dt=""urn:schemas-microsoft-com:datatypes""><Description dt:dt=""string"">E-Prime Primary Realtime Clock</Description><StartTime><Timestamp dt:dt=""int"">0</Timestamp><DateUtc dt:dt=""string"">2022-09-06T09:55:03Z</DateUtc></StartTime><FrequencyChanges><FrequencyChange><Frequency dt:dt=""r8"">3312871</Frequency><Timestamp dt:dt=""r8"">27678923089</Timestamp><Current dt:dt=""r8"">0</Current><DateUtc dt:dt=""string"">2022-09-06T09:55:03Z</DateUtc></FrequencyChange></FrequencyChanges></Clock>\n";TMS_Ibrahim-39-2;7503;100561;1;;1909784658;2010242;2010242;09/06/2022;06/09/2022 09:55;11:55:03;2010147;0;;-999999;22;15808;0;1;1616;17424;1;1;1;2;1;0;1;BlockProcFischi;BlockList;1;125;0;;-999999;13;19909;0;1;4175;24084;1;1;1;1;ProcFischi1;ListBlockFischi;1;1;1;0;0;3;Po2_B;250;2;op;3;2;38;1;1;2;0;TrialProc;2209;1606;Po2_B;236;1609;1846;ListFischi1;0;;6;210;27589;26;133;1890;29479;514;1;1634;1;1008;451;1120;1;1
TMS_Ibrahim;39;2;"<?xml version=""1.0""?>\n<Clock xmlns:dt=""urn:schemas-microsoft-com:datatypes""><Description dt:dt=""string"">E-Prime Primary Realtime Clock</Description><StartTime><Timestamp dt:dt=""int"">0</Timestamp><DateUtc dt:dt=""string"">2022-09-06T09:55:03Z</DateUtc></StartTime><FrequencyChanges><FrequencyChange><Frequency dt:dt=""r8"">3312871</Frequency><Timestamp dt:dt=""r8"">27678923089</Timestamp><Current dt:dt=""r8"">0</Current><DateUtc dt:dt=""string"">2022-09-06T09:55:03Z</DateUtc></FrequencyChange></FrequencyChanges></Clock>\n";TMS_Ibrahim-39-2;7503;100561;1;;1909784658;2010242;2010242;09/06/2022;06/09/2022 09:55;11:55:03;2010147;0;;-999999;22;15808;0;1;1616;17424;1;1;1;2;1;0;1;BlockProcFischi;BlockList;1;125;0;;-999999;13;19909;0;1;4175;24084;1;1;1;1;ProcFischi1;ListBlockFischi;2;1;1;0;0;3;Po5_B;250;2;op;3;2;41;1;2;2;0;TrialProc;3201;980;Po5_B;206;1269;1475;ListFischi1;0;;1;207;35216;10;13;1302;36518;360;1;1302;1;613;379;942;1;1
TMS_Ibrahim;39;2;"<?xml version=""1.0""?>\n<Clock xmlns:dt=""urn:schemas-microsoft-com:datatypes""><Description dt:dt=""string"">E-Prime Primary Realtime Clock</Description><StartTime><Timestamp dt:dt=""int"">0</Timestamp><DateUtc dt:dt=""string"">2022-09-06T09:55:03Z</DateUtc></StartTime><FrequencyChanges><FrequencyChange><Frequency dt:dt=""r8"">3312871</Frequency><Timestamp dt:dt=""r8"">27678923089</Timestamp><Current dt:dt=""r8"">0</Current><DateUtc dt:dt=""string"">2022-09-06T09:55:03Z</DateUtc></FrequencyChange></FrequencyChanges></Clock>\n";TMS_Ibrahim-39-2;7503;100561;1;;1909784658;2010242;2010242;09/06/2022;06/09/2022 09:55;11:55:03;2010147;0;;-999999;22;15808;0;1;1616;17424;1;1;1;2;1;0;1;BlockProcFischi;BlockList;1;125;0;;-999999;13;19909;0;1;4175;24084;1;1;1;1;ProcFischi1;ListBlockFischi;3;1;2;1;0;5;Prmod_B;250;1;op;5;2;15;1;3;1;0;TrialProc;1831;1317;Prmod_B;28;1677;1650;ListFischi1;0;;2;203;44009;13;15;1709;45718;285;1;1709;1;1528;372;1424;1;1
TMS_Ibrahim;39;2;"<?xml version=""1.0""?>\n<Clock xmlns:dt=""urn:schemas-microsoft-com:datatypes""><Description dt:dt=""string"">E-Prime Primary Realtime Clock</Description><StartTime><Timestamp dt:dt=""int"">0</Timestamp><DateUtc dt:dt=""string"">2022-09-06T09:55:03Z</DateUtc></StartTime><FrequencyChanges><FrequencyChange><Frequency dt:dt=""r8"">3312871</Frequency><Timestamp dt:dt=""r8"">27678923089</Timestamp><Current dt:dt=""r8"">0</Current><DateUtc dt:dt=""string"">2022-09-06T09:55:03Z</DateUtc></FrequencyChange></FrequencyChanges></Clock>\n";TMS_Ibrahim-39-2;7503;100561;1;;1909784658;2010242;2010242;09/06/2022;06/09/2022 09:55;11:55:03;2010147;0;;-999999;22;15808;0;1;1616;17424;1;1;1;2;1;0;1;BlockProcFischi;BlockList;1;125;0;;-999999;13;19909;0;1;4175;24084;1;1;1;1;ProcFischi1;ListBlockFischi;4;1;1;0;0;3;Po4_B;225;2;op;3;2;40;1;4;2;0;TrialProc;2134;1337;Po4_B;181;1529;1711;ListFischi1;0;;2;203;52465;7;133;1605;54070;389;1;1557;1;645;204;1168;1;1
TMS_Ibrahim;39;2;"<?xml version=""1.0""?>\n<Clock xmlns:dt=""urn:schemas-microsoft-com:datatypes""><Description dt:dt=""string"">E-Prime Primary Realtime Clock</Description><StartTime><Timestamp dt:dt=""int"">0</Timestamp><DateUtc dt:dt=""string"">2022-09-06T09:55:03Z</DateUtc></StartTime><FrequencyChanges><FrequencyChange><Frequency dt:dt=""r8"">3312871</Frequency><Timestamp dt:dt=""r8"">27678923089</Timestamp><Current dt:dt=""r8"">0</Current><DateUtc dt:dt=""string"">2022-09-06T09:55:03Z</DateUtc></FrequencyChange></FrequencyChanges></Clock>\n";TMS_Ibrahim-39-2;7503;100561;1;;1909784658;2010242;2010242;09/06/2022;06/09/2022 09:55;11:55:03;2010147;0;;-999999;22;15808;0;1;1616;17424;1;1;1;2;1;0;1;BlockProcFischi;BlockList;1;125;0;;-999999;13;19909;0;1;4175;24084;1;1;1;1;ProcFischi1;ListBlockFischi;5;1;2;0;0;5;Pr8_B;225;1;op;5;2;5;1;5;1;0;TrialProc;2739;714;Pr8_B;33;1709;1741;ListFischi1;0;;2;203;61204;12;15;1746;62950;370;1;1746;1;670;369;1376;1;1
TMS_Ibrahim;39;2;"<?xml version=""1.0""?>\n<Clock xmlns:dt=""urn:schemas-microsoft-com:datatypes""><Description dt:dt=""string"">E-Prime Primary Realtime Clock</Description><StartTime><Timestamp dt:dt=""int"">0</Timestamp><DateUtc dt:dt=""string"">2022-09-06T09:55:03Z</DateUtc></StartTime><FrequencyChanges><FrequencyChange><Frequency dt:dt=""r8"">3312871</Frequency><Timestamp dt:dt=""r8"">27678923089</Timestamp><Current dt:dt=""r8"">0</Current><DateUtc dt:dt=""string"">2022-09-06T09:55:03Z</DateUtc></FrequencyChange></FrequencyChanges></Clock>\n";TMS_Ibrahim-39-2;7503;100561;1;;1909784658;2010242;2010242;09/06/2022;06/09/2022 09:55;11:55:03;2010147;0;;-999999;22;15808;0;1;1616;17424;1;1;1;2;1;0;1;BlockProcFischi;BlockList;1;125;0;;-999999;13;19909;0;1;4175;24084;1;1;1;1;ProcFischi1;ListBlockFischi;6;1;1;0;0;5;Po4_B;250;4;ug;5;2;51;1;6;4;1;TrialProc;1666;1356;Po4_B;15;1701;1716;ListFischi1;0;;2;203;70013;13;15;1736;71749;408;1;1736;1;1364;217;1328;1;1
TMS_Ibrahim;39;2;"<?xml version=""1.0""?>\n<Clock xmlns:dt=""urn:schemas-microsoft-com:datatypes""><Description dt:dt=""string"">E-Prime Primary Realtime Clock</Description><StartTime><Timestamp dt:dt=""int"">0</Timestamp><DateUtc dt:dt=""string"">2022-09-06T09:55:03Z</DateUtc></StartTime><FrequencyChanges><FrequencyChange><Frequency dt:dt=""r8"">3312871</Frequency><Timestamp dt:dt=""r8"">27678923089</Timestamp><Current dt:dt=""r8"">0</Current><DateUtc dt:dt=""string"">2022-09-06T09:55:03Z</DateUtc></FrequencyChange></FrequencyChanges></Clock>\n";TMS_Ibrahim-39-2;7503;100561;1;;1909784658;2010242;2010242;09/06/2022;06/09/2022 09:55;11:55:03;2010147;0;;-999999;22;15808;0;1;1616;17424;1;1;1;2;1;0;1;BlockProcFischi;BlockList;1;125;0;;-999999;13;19909;0;1;4175;24084;1;1;1;1;ProcFischi1;ListBlockFischi;7;1;2;0;0;3;Pr5_B;250;3;ug;3;2;30;1;7;3;1;TrialProc;2221;670;Pr5_B;27;1296;1270;ListFischi1;0;;2;203;79442;7;13;1331;80773;307;1;1331;1;1264;356;1024;1;1
TMS_Ibrahim;39;2;"<?xml version=""1.0""?>\n<Clock xmlns:dt=""urn:schemas-microsoft-com:datatypes""><Description dt:dt=""string"">E-Prime Primary Realtime Clock</Description><StartTime><Timestamp dt:dt=""int"">0</Timestamp><DateUtc dt:dt=""string"">2022-09-06T09:55:03Z</DateUtc></StartTime><FrequencyChanges><FrequencyChange><Frequency dt:dt=""r8"">3312871</Frequency><Timestamp dt:dt=""r8"">27678923089</Timestamp><Current dt:dt=""r8"">0</Current><DateUtc dt:dt=""string"">2022-09-06T09:55:03Z</DateUtc></FrequencyChange></FrequencyChanges></Clock>\n";TMS_Ibrahim-39-2;7503;100561;1;;1909784658;2010242;2010242;09/06/2022;06/09/2022 09:55;11:55:03;2010147;0;;-999999;22;15808;0;1;1616;17424;1;1;1;2;1;0;1;BlockProcFischi;BlockList;1;125;0;;-999999;13;19909;0;1;4175;24084;1;1;1;1;ProcFischi1;ListBlockFischi;8;1;1;0;0;5;Po5_B;225;4;ug;5;2;52;1;8;4;1;TrialProc;2488;992;Po5_B;156;1316;1471;ListFischi1;0;;2;203;88343;9;15;1342;89685;334;1;1342;1;1094;385;1008;1;1
TMS_Ibrahim;39;2;"<?xml version=""1.0""?>\n<Clock xmlns:dt=""urn:schemas-microsoft-com:datatypes""><Description dt:dt=""string"">E-Prime Primary Realtime Clock</Description><StartTime><Timestamp dt:dt=""int"">0</Timestamp><DateUtc dt:dt=""string"">2022-09-06T09:55:03Z</DateUtc></StartTime><FrequencyChanges><FrequencyChange><Frequency dt:dt=""r8"">3312871</Frequency><Timestamp dt:dt=""r8"">27678923089</Timestamp><Current dt:dt=""r8"">0</Current><DateUtc dt:dt=""string"">2022-09-06T09:55:03Z</DateUtc></FrequencyChange></FrequencyChanges></Clock>\n";TMS_Ibrahim-39-2;7503;100561;1;;1909784658;2010242;2010242;09/06/2022;06/09/2022 09:55;11:55:03;2010147;0;;-999999;22;15808;0;1;1616;17424;1;1;1;2;1;0;1;BlockProcFischi;BlockList;1;125;0;;-999999;13;19909;0;1;4175;24084;1;1;1;1;ProcFischi1;ListBlockFischi;9;1;1;0;0;5;Po2_B;200;4;ug;5;2;59;1;9;4;1;TrialProc;1918;1586;Po2_B;372;1442;1813;ListFischi1;0;;2;203;97479;16;15;1469;98948;367;1;1469;1;1197;508;1102;1;1
TMS_Ibrahim;39;2;"<?xml version=""1.0""?>\n<Clock xmlns:dt=""urn:schemas-microsoft-com:datatypes""><Description dt:dt=""string"">E-Prime Primary Realtime Clock</Description><StartTime><Timestamp dt:dt=""int"">0</Timestamp><DateUtc dt:dt=""string"">2022-09-06T09:55:03Z</DateUtc></StartTime><FrequencyChanges><FrequencyChange><Frequency dt:dt=""r8"">3312871</Frequency><Timestamp dt:dt=""r8"">27678923089</Timestamp><Current dt:dt=""r8"">0</Current><DateUtc dt:dt=""string"">2022-09-06T09:55:03Z</DateUtc></FrequencyChange></FrequencyChanges></Clock>\n";TMS_Ibrahim-39-2;7503;100561;1;;1909784658;2010242;2010242;09/06/2022;06/09/2022 09:55;11:55:03;2010147;0;;-999999;22;15808;0;1;1616;17424;1;1;1;2;1;0;1;BlockProcFischi;BlockList;1;125;0;;-999999;13;19909;0;1;4175;24084;1;1;1;1;ProcFischi1;ListBlockFischi;10;1;1;0;1;5;Po4_B;200;4;ug;5;2;56;1;10;4;1;TrialProc;2281;1339;Po4_B;351;1362;1712;ListFischi1;0;;2;203;106455;10;1555;3437;109892;333;1;1389;1;1144;423;1056;1;1
TMS_Ibrahim;39;2;"<?xml version=""1.0""?>\n<Clock xmlns:dt=""urn:schemas-microsoft-com:datatypes""><Description dt:dt=""string"">E-Prime Primary Realtime Clock</Description><StartTime><Timestamp dt:dt=""int"">0</Timestamp><DateUtc dt:dt=""string"">2022-09-06T09:55:03Z</DateUtc></StartTime><FrequencyChanges><FrequencyChange><Frequency dt:dt=""r8"">3312871</Frequency><Timestamp dt:dt=""r8"">27678923089</Timestamp><Current dt:dt=""r8"">0</Current><DateUtc dt:dt=""string"">2022-09-06T09:55:03Z</DateUtc></FrequencyChange></FrequencyChanges></Clock>\n";TMS_Ibrahim-39-2;7503;100561;1;;1909784658;2010242;2010242;09/06/2022;06/09/2022 09:55;11:55:03;2010147;0;;-999999;22;15808;0;1;1616;17424;1;1;1;2;1;0;1;BlockProcFischi;BlockList;1;125;0;;-999999;13;19909;0;1;4175;24084;1;1;1;1;ProcFischi1;ListBlockFischi;11;1;1;0;0;3;Po3_B;200;2;op;3;2;39;1;11;2;0;TrialProc;3295;1315;Po3_B;240;1822;1582;ListFischi1;0;;2;203;115462;13;13;1854;117316;430;1;1854;1;1332;415;1424;1;1
TMS_Ibrahim;39;2;"<?xml version=""1.0""?>\n<Clock xmlns:dt=""urn:schemas-microsoft-com:datatypes""><Description dt:dt=""string"">E-Prime Primary Realtime Clock</Description><StartTime><Timestamp dt:dt=""int"">0</Timestamp><DateUtc dt:dt=""string"">2022-09-06T09:55:03Z</DateUtc></StartTime><FrequencyChanges><FrequencyChange><Frequency dt:dt=""r8"">3312871</Frequency><Timestamp dt:dt=""r8"">27678923089</Timestamp><Current dt:dt=""r8"">0</Current><DateUtc dt:dt=""string"">2022-09-06T09:55:03Z</DateUtc></FrequencyChange></FrequencyChanges></Clock>\n";TMS_Ibrahim-39-2;7503;100561;1;;1909784658;2010242;2010242;09/06/2022;06/09/2022 09:55;11:55:03;2010147;0;;-999999;22;15808;0;1;1616;17424;1;1;1;2;1;0;1;BlockProcFischi;BlockList;1;125;0;;-999999;13;19909;0;1;4175;24084;1;1;1;1;ProcFischi1;ListBlockFischi;12;1;2;0;0;5;Pr2_B;200;1;op;5;2;6;1;12;1;0;TrialProc;2192;714;Pr2_B;53;1301;1247;ListFischi1;0;;2;203;124701;10;15555;2918;127619;295;1;1335;1;1321;240;1040;1;1
TMS_Ibrahim;39;2;"<?xml version=""1.0""?>\n<Clock xmlns:dt=""urn:schemas-microsoft-com:datatypes""><Description dt:dt=""string"">E-Prime Primary Realtime Clock</Description><StartTime><Timestamp dt:dt=""int"">0</Timestamp><DateUtc dt:dt=""string"">2022-09-06T09:55:03Z</DateUtc></StartTime><FrequencyChanges><FrequencyChange><Frequency dt:dt=""r8"">3312871</Frequency><Timestamp dt:dt=""r8"">27678923089</Timestamp><Current dt:dt=""r8"">0</Current><DateUtc dt:dt=""string"">2022-09-06T09:55:03Z</DateUtc></FrequencyChange></FrequencyChanges></Clock>\n";TMS_Ibrahim-39-2;7503;100561;1;;1909784658;2010242;2010242;09/06/2022;06/09/2022 09:55;11:55:03;2010147;0;;-999999;22;15808;0;1;1616;17424;1;1;1;2;1;0;1;BlockProcFischi;BlockList;1;125;0;;-999999;13;19909;0;1;4175;24084;1;1;1;1;ProcFischi1;ListBlockFischi;13;1;2;0;0;3;Pr2_B;225;3;ug;3;2;17;1;13;3;1;TrialProc;2441;719;Pr2_B;89;1342;1253;ListFischi1;0;;2;203;132692;16;13;1375;134067;415;1;1375;1;1537;505;960;1;1
TMS_Ibrahim;39;2;"<?xml version=""1.0""?>\n<Clock xmlns:dt=""urn:schemas-microsoft-com:datatypes""><Description dt:dt=""string"">E-Prime Primary Realtime Clock</Description><StartTime><Timestamp dt:dt=""int"">0</Timestamp><DateUtc dt:dt=""string"">2022-09-06T09:55:03Z</DateUtc></StartTime><FrequencyChanges><FrequencyChange><Frequency dt:dt=""r8"">3312871</Frequency><Timestamp dt:dt=""r8"">27678923089</Timestamp><Current dt:dt=""r8"">0</Current><DateUtc dt:dt=""string"">2022-09-06T09:55:03Z</DateUtc></FrequencyChange></FrequencyChanges></Clock>\n";TMS_Ibrahim-39-2;7503;100561;1;;1909784658;2010242;2010242;09/06/2022;06/09/2022 09:55;11:55:03;2010147;0;;-999999;22;15808;0;1;1616;17424;1;1;1;2;1;0;1;BlockProcFischi;BlockList;1;125;0;;-999999;13;19909;0;1;4175;24084;1;1;1;1;ProcFischi1;ListBlockFischi;14;1;1;0;1;3;Po4_B;200;2;op;3;2;45;1;14;2;0;TrialProc;2487;1350;Po4_B;284;1426;1710;ListFischi1;0;;2;203;141324;7;13;1447;142771;391;1;1447;1;1029;559;1056;1;1
TMS_Ibrahim;39;2;"<?xml version=""1.0""?>\n<Clock xmlns:dt=""urn:schemas-microsoft-com:datatypes""><Description dt:dt=""string"">E-Prime Primary Realtime Clock</Description><StartTime><Timestamp dt:dt=""int"">0</Timestamp><DateUtc dt:dt=""string"">2022-09-06T09:55:03Z</DateUtc></StartTime><FrequencyChanges><FrequencyChange><Frequency dt:dt=""r8"">3312871</Frequency><Timestamp dt:dt=""r8"">27678923089</Timestamp><Current dt:dt=""r8"">0</Current><DateUtc dt:dt=""string"">2022-09-06T09:55:03Z</DateUtc></FrequencyChange></FrequencyChanges></Clock>\n";TMS_Ibrahim-39-2;7503;100561;1;;1909784658;2010242;2010242;09/06/2022;06/09/2022 09:55;11:55:03;2010147;0;;-999999;22;15808;0;1;1616;17424;1;1;1;2;1;0;1;BlockProcFischi;BlockList;1;125;0;;-999999;13;19909;0;1;4175;24084;1;1;1;1;ProcFischi1;ListBlockFischi;15;1;1;1;2;5;Pomod_B;200;4;ug;5;2;64;1;15;4;1;TrialProc;2321;1312;Pomod_B;156;1828;1671;ListFischi1;0;;2;203;151358;9;155;3477;154835;437;1;1861;1;1480;281;1424;1;1
TMS_Ibrahim;39;2;"<?xml version=""1.0""?>\n<Clock xmlns:dt=""urn:schemas-microsoft-com:datatypes""><Description dt:dt=""string"">E-Prime Primary Realtime Clock</Description><StartTime><Timestamp dt:dt=""int"">0</Timestamp><DateUtc dt:dt=""string"">2022-09-06T09:55:03Z</DateUtc></StartTime><FrequencyChanges><FrequencyChange><Frequency dt:dt=""r8"">3312871</Frequency><Timestamp dt:dt=""r8"">27678923089</Timestamp><Current dt:dt=""r8"">0</Current><DateUtc dt:dt=""string"">2022-09-06T09:55:03Z</DateUtc></FrequencyChange></FrequencyChanges></Clock>\n";TMS_Ibrahim-39-2;7503;100561;1;;1909784658;2010242;2010242;09/06/2022;06/09/2022 09:55;11:55:03;2010147;0;;-999999;22;15808;0;1;1616;17424;1;1;1;2;1;0;1;BlockProcFischi;BlockList;1;125;0;;-999999;13;19909;0;1;4175;24084;1;1;1;1;ProcFischi1;ListBlockFischi;16;1;2;0;0;3;Pr2_B;200;3;ug;3;2;27;1;16;3;1;TrialProc;978;712;Pr2_B;116;1361;1244;ListFischi1;0;;2;203;160742;8;133;2428;163170;316;1;1388;1;1030;360;1072;1;1
TMS_Ibrahim;39;2;"<?xml version=""1.0""?>\n<Clock xmlns:dt=""urn:schemas-microsoft-com:datatypes""><Description dt:dt=""string"">E-Prime Primary Realtime Clock</Description><StartTime><Timestamp dt:dt=""int"">0</Timestamp><DateUtc dt:dt=""string"">2022-09-06T09:55:03Z</DateUtc></StartTime><FrequencyChanges><FrequencyChange><Frequency dt:dt=""r8"">3312871</Frequency><Timestamp dt:dt=""r8"">27678923089</Timestamp><Current dt:dt=""r8"">0</Current><DateUtc dt:dt=""string"">2022-09-06T09:55:03Z</DateUtc></FrequencyChange></FrequencyChanges></Clock>\n";TMS_Ibrahim-39-2;7503;100561;1;;1909784658;2010242;2010242;09/06/2022;06/09/2022 09:55;11:55:03;2010147;0;;-999999;22;15808;0;1;1616;17424;1;1;1;2;1;0;1;BlockProcFischi;BlockList;1;125;0;;-999999;13;19909;0;1;4175;24084;1;1;1;1;ProcFischi1;ListBlockFischi;17;1;1;0;2;3;Po5_B;200;2;op;3;2;36;1;17;2;0;TrialProc;1981;984;Po5_B;107;1368;1476;ListFischi1;0;;3;201;168079;15;133;2131;170210;391;1;1395;1;975;282;1004;1;1
TMS_Ibrahim;39;2;"<?xml version=""1.0""?>\n<Clock xmlns:dt=""urn:schemas-microsoft-com:datatypes""><Description dt:dt=""string"">E-Prime Primary Realtime Clock</Description><StartTime><Timestamp dt:dt=""int"">0</Timestamp><DateUtc dt:dt=""string"">2022-09-06T09:55:03Z</DateUtc></StartTime><FrequencyChanges><FrequencyChange><Frequency dt:dt=""r8"">3312871</Frequency><Timestamp dt:dt=""r8"">27678923089</Timestamp><Current dt:dt=""r8"">0</Current><DateUtc dt:dt=""string"">2022-09-06T09:55:03Z</DateUtc></FrequencyChange></FrequencyChanges></Clock>\n";TMS_Ibrahim-39-2;7503;100561;1;;1909784658;2010242;2010242;09/06/2022;06/09/2022 09:55;11:55:03;2010147;0;;-999999;22;15808;0;1;1616;17424;1;1;1;2;1;0;1;BlockProcFischi;BlockList;1;125;0;;-999999;13;19909;0;1;4175;24084;1;1;1;1;ProcFischi1;ListBlockFischi;18;1;2;0;0;3;Pr3_B;175;3;ug;3;2;23;1;18;3;1;TrialProc;1765;718;Pr3_B;98;1620;1718;ListFischi1;0;;2;203;176862;15;13;1652;178514;484;1;1652;1;376;596;1168;1;1
TMS_Ibrahim;39;2;"<?xml version=""1.0""?>\n<Clock xmlns:dt=""urn:schemas-microsoft-com:datatypes""><Description dt:dt=""string"">E-Prime Primary Realtime Clock</Description><StartTime><Timestamp dt:dt=""int"">0</Timestamp><DateUtc dt:dt=""string"">2022-09-06T09:55:03Z</DateUtc></StartTime><FrequencyChanges><FrequencyChange><Frequency dt:dt=""r8"">3312871</Frequency><Timestamp dt:dt=""r8"">27678923089</Timestamp><Current dt:dt=""r8"">0</Current><DateUtc dt:dt=""string"">2022-09-06T09:55:03Z</DateUtc></FrequencyChange></FrequencyChanges></Clock>\n";TMS_Ibrahim-39-2;7503;100561;1;;1909784658;2010242;2010242;09/06/2022;06/09/2022 09:55;11:55:03;2010147;0;;-999999;22;15808;0;1;1616;17424;1;1;1;2;1;0;1;BlockProcFischi;BlockList;1;125;0;;-999999;13;19909;0;1;4175;24084;1;1;1;1;ProcFischi1;ListBlockFischi;19;1;2;0;0;3;Pr2_B;150;3;ug;3;2;22;1;19;3;1;TrialProc;2721;717;Pr2_B;309;1558;1250;ListFischi1;0;;2;203;184982;12;133;2060;187042;300;1;1580;1;998;533;1280;1;1
TMS_Ibrahim;39;2;"<?xml version=""1.0""?>\n<Clock xmlns:dt=""urn:schemas-microsoft-com:datatypes""><Description dt:dt=""string"">E-Prime Primary Realtime Clock</Description><StartTime><Timestamp dt:dt=""int"">0</Timestamp><DateUtc dt:dt=""string"">2022-09-06T09:55:03Z</DateUtc></StartTime><FrequencyChanges><FrequencyChange><Frequency dt:dt=""r8"">3312871</Frequency><Timestamp dt:dt=""r8"">27678923089</Timestamp><Current dt:dt=""r8"">0</Current><DateUtc dt:dt=""string"">2022-09-06T09:55:03Z</DateUtc></FrequencyChange></FrequencyChanges></Clock>\n";TMS_Ibrahim-39-2;7503;100561;1;;1909784658;2010242;2010242;09/06/2022;06/09/2022 09:55;11:55:03;2010147;0;;-999999;22;15808;0;1;1616;17424;1;1;1;2;1;0;1;BlockProcFischi;BlockList;1;125;0;;-999999;13;19909;0;1;4175;24084;1;1;1;1;ProcFischi1;ListBlockFischi;20;1;1;0;0;5;Po3_B;175;4;ug;5;2;50;1;20;4;1;TrialProc;2138;1310;Po3_B;140;1437;1577;ListFischi1;0;;2;203;193211;7;155;1526;194737;262;1;1462;1;825;407;1200;1;1
TMS_Ibrahim;39;2;"<?xml version=""1.0""?>\n<Clock xmlns:dt=""urn:schemas-microsoft-com:datatypes""><Description dt:dt=""string"">E-Prime Primary Realtime Clock</Description><StartTime><Timestamp dt:dt=""int"">0</Timestamp><DateUtc dt:dt=""string"">2022-09-06T09:55:03Z</DateUtc></StartTime><FrequencyChanges><FrequencyChange><Frequency dt:dt=""r8"">3312871</Frequency><Timestamp dt:dt=""r8"">27678923089</Timestamp><Current dt:dt=""r8"">0</Current><DateUtc dt:dt=""string"">2022-09-06T09:55:03Z</DateUtc></FrequencyChange></FrequencyChanges></Clock>\n";TMS_Ibrahim-39-2;7503;100561;1;;1909784658;2010242;2010242;09/06/2022;06/09/2022 09:55;11:55:03;2010147;0;;-999999;22;15808;0;1;1616;17424;1;1;1;2;1;0;1;BlockProcFischi;BlockList;1;125;0;;-999999;13;19909;0;1;4175;24084;1;1;1;1;ProcFischi1;ListBlockFischi;21;1;1;1;0;3;Pomod_B;175;2;op;3;2;47;1;21;2;0;TrialProc;1283;1320;Pomod_B;111;1791;1680;ListFischi1;0;;2;203;202610;17;133;3423;206033;559;1;1823;1;913;589;1264;1;1
TMS_Ibrahim;39;2;"<?xml version=""1.0""?>\n<Clock xmlns:dt=""urn:schemas-microsoft-com:datatypes""><Description dt:dt=""string"">E-Prime Primary Realtime Clock</Description><StartTime><Timestamp dt:dt=""int"">0</Timestamp><DateUtc dt:dt=""string"">2022-09-06T09:55:03Z</DateUtc></StartTime><FrequencyChanges><FrequencyChange><Frequency dt:dt=""r8"">3312871</Frequency><Timestamp dt:dt=""r8"">27678923089</Timestamp><Current dt:dt=""r8"">0</Current><DateUtc dt:dt=""string"">2022-09-06T09:55:03Z</DateUtc></FrequencyChange></FrequencyChanges></Clock>\n";TMS_Ibrahim-39-2;7503;100561;1;;1909784658;2010242;2010242;09/06/2022;06/09/2022 09:55;11:55:03;2010147;0;;-999999;22;15808;0;1;1616;17424;1;1;1;2;1;0;1;BlockProcFischi;BlockList;1;125;0;;-999999;13;19909;0;1;4175;24084;1;1;1;1;ProcFischi1;ListBlockFischi;22;1;2;0;1;3;Pr3_B;150;3;ug;3;2;18;1;22;3;1;TrialProc;1934;718;Pr3_B;15;1733;1718;ListFischi1;0;;3;201;209756;15;13;1765;211521;613;1;1765;1;784;502;1152;1;1
TMS_Ibrahim;39;2;"<?xml version=""1.0""?>\n<Clock xmlns:dt=""urn:schemas-microsoft-com:datatypes""><Description dt:dt=""string"">E-Prime Primary Realtime Clock</Description><StartTime><Timestamp dt:dt=""int"">0</Timestamp><DateUtc dt:dt=""string"">2022-09-06T09:55:03Z</DateUtc></StartTime><FrequencyChanges><FrequencyChange><Frequency dt:dt=""r8"">3312871</Frequency><Timestamp dt:dt=""r8"">27678923089</Timestamp><Current dt:dt=""r8"">0</Current><DateUtc dt:dt=""string"">2022-09-06T09:55:03Z</DateUtc></FrequencyChange></FrequencyChanges></Clock>\n";TMS_Ibrahim-39-2;7503;100561;1;;1909784658;2010242;2010242;09/06/2022;06/09/2022 09:55;11:55:03;2010147;0;;-999999;22;15808;0;1;1616;17424;1;1;1;2;1;0;1;BlockProcFischi;BlockList;1;125;0;;-999999;13;19909;0;1;4175;24084;1;1;1;1;ProcFischi1;ListBlockFischi;23;1;2;0;0;5;Pr4_B;175;1;op;5;2;3;1;23;1;0;TrialProc;3791;674;Pr4_B;123;1371;1248;ListFischi1;0;;2;203;217903;12;15;1393;219296;306;1;1393;1;804;509;1087;1;1
TMS_Ibrahim;39;2;"<?xml version=""1.0""?>\n<Clock xmlns:dt=""urn:schemas-microsoft-com:datatypes""><Description dt:dt=""string"">E-Prime Primary Realtime Clock</Description><StartTime><Timestamp dt:dt=""int"">0</Timestamp><DateUtc dt:dt=""string"">2022-09-06T09:55:03Z</DateUtc></StartTime><FrequencyChanges><FrequencyChange><Frequency dt:dt=""r8"">3312871</Frequency><Timestamp dt:dt=""r8"">27678923089</Timestamp><Current dt:dt=""r8"">0</Current><DateUtc dt:dt=""string"">2022-09-06T09:55:03Z</DateUtc></FrequencyChange></FrequencyChanges></Clock>\n";TMS_Ibrahim-39-2;7503;100561;1;;1909784658;2010242;2010242;09/06/2022;06/09/2022 09:55;11:55:03;2010147;0;;-999999;22;15808;0;1;1616;17424;1;1;1;2;1;0;1;BlockProcFischi;BlockList;1;125;0;;-999999;13;19909;0;1;4175;24084;1;1;1;1;ProcFischi1;ListBlockFischi;24;1;1;0;0;5;Po2_B;150;4;ug;5;2;49;1;24;4;1;TrialProc;3453;1583;Po2_B;266;1544;1810;ListFischi1;0;;2;203;226286;12;15;1570;227856;114;1;1570;1;760;402;1456;1;1
TMS_Ibrahim;39;2;"<?xml version=""1.0""?>\n<Clock xmlns:dt=""urn:schemas-microsoft-com:datatypes""><Description dt:dt=""string"">E-Prime Primary Realtime Clock</Description><StartTime><Timestamp dt:dt=""int"">0</Timestamp><DateUtc dt:dt=""string"">2022-09-06T09:55:03Z</DateUtc></StartTime><FrequencyChanges><FrequencyChange><Frequency dt:dt=""r8"">3312871</Frequency><Timestamp dt:dt=""r8"">27678923089</Timestamp><Current dt:dt=""r8"">0</Current><DateUtc dt:dt=""string"">2022-09-06T09:55:03Z</DateUtc></FrequencyChange></FrequencyChanges></Clock>\n";TMS_Ibrahim-39-2;7503;100561;1;;1909784658;2010242;2010242;09/06/2022;06/09/2022 09:55;11:55:03;2010147;0;;-999999;22;15808;0;1;1616;17424;1;1;1;2;1;0;1;BlockProcFischi;BlockList;1;125;0;;-999999;13;19909;0;1;4175;24084;1;1;1;1;ProcFischi1;ListBlockFischi;25;1;2;0;0;5;Pr3_B;150;1;op;5;2;2;1;25;1;0;TrialProc;3586;711;Pr3_B;29;1740;1711;ListFischi1;0;;2;203;235619;9;15;1773;237392;237;1;1773;1;788;443;1536;1;1
TMS_Ibrahim;39;2;"<?xml version=""1.0""?>\n<Clock xmlns:dt=""urn:schemas-microsoft-com:datatypes""><Description dt:dt=""string"">E-Prime Primary Realtime Clock</Description><StartTime><Timestamp dt:dt=""int"">0</Timestamp><DateUtc dt:dt=""string"">2022-09-06T09:55:03Z</DateUtc></StartTime><FrequencyChanges><FrequencyChange><Frequency dt:dt=""r8"">3312871</Frequency><Timestamp dt:dt=""r8"">27678923089</Timestamp><Current dt:dt=""r8"">0</Current><DateUtc dt:dt=""string"">2022-09-06T09:55:03Z</DateUtc></FrequencyChange></FrequencyChanges></Clock>\n";TMS_Ibrahim-39-2;7503;100561;1;;1909784658;2010242;2010242;09/06/2022;06/09/2022 09:55;11:55:03;2010147;0;;-999999;22;15808;0;1;1616;17424;1;1;1;2;1;0;1;BlockProcFischi;BlockList;1;125;0;;-999999;13;19909;0;1;4175;24084;1;1;1;1;ProcFischi1;ListBlockFischi;26;1;1;0;0;3;Po8_B;150;2;op;3;2;42;1;26;2;0;TrialProc;2341;1253;Po8_B;84;1502;1587;ListFischi1;0;;2;203;244328;16;13;1528;245856;360;1;1528;1;1294;472;1168;1;1
TMS_Ibrahim;39;2;"<?xml version=""1.0""?>\n<Clock xmlns:dt=""urn:schemas-microsoft-com:datatypes""><Description dt:dt=""string"">E-Prime Primary Realtime Clock</Description><StartTime><Timestamp dt:dt=""int"">0</Timestamp><DateUtc dt:dt=""string"">2022-09-06T09:55:03Z</DateUtc></StartTime><FrequencyChanges><FrequencyChange><Frequency dt:dt=""r8"">3312871</Frequency><Timestamp dt:dt=""r8"">27678923089</Timestamp><Current dt:dt=""r8"">0</Current><DateUtc dt:dt=""string"">2022-09-06T09:55:03Z</DateUtc></FrequencyChange></FrequencyChanges></Clock>\n";TMS_Ibrahim-39-2;7503;100561;1;;1909784658;2010242;2010242;09/06/2022;06/09/2022 09:55;11:55:03;2010147;0;;-999999;22;15808;0;1;1616;17424;1;1;1;2;1;0;1;BlockProcFischi;BlockList;1;125;0;;-999999;13;19909;0;1;4175;24084;1;1;1;1;ProcFischi1;ListBlockFischi;27;1;1;0;0;3;Po2_B;125;2;op;3;2;33;1;27;2;0;TrialProc;2369;1588;Po2_B;14;1828;1814;ListFischi1;0;;2;203;253564;17;133;2899;256463;371;1;1859;1;1219;318;1488;1;1
TMS_Ibrahim;39;2;"<?xml version=""1.0""?>\n<Clock xmlns:dt=""urn:schemas-microsoft-com:datatypes""><Description dt:dt=""string"">E-Prime Primary Realtime Clock</Description><StartTime><Timestamp dt:dt=""int"">0</Timestamp><DateUtc dt:dt=""string"">2022-09-06T09:55:03Z</DateUtc></StartTime><FrequencyChanges><FrequencyChange><Frequency dt:dt=""r8"">3312871</Frequency><Timestamp dt:dt=""r8"">27678923089</Timestamp><Current dt:dt=""r8"">0</Current><DateUtc dt:dt=""string"">2022-09-06T09:55:03Z</DateUtc></FrequencyChange></FrequencyChanges></Clock>\n";TMS_Ibrahim-39-2;7503;100561;1;;1909784658;2010242;2010242;09/06/2022;06/09/2022 09:55;11:55:03;2010147;0;;-999999;22;15808;0;1;1616;17424;1;1;1;2;1;0;1;BlockProcFischi;BlockList;1;125;0;;-999999;13;19909;0;1;4175;24084;1;1;1;1;ProcFischi1;ListBlockFischi;28;1;2;0;0;3;Pr4_B;125;3;ug;3;2;29;1;28;3;1;TrialProc;1594;673;Pr4_B;628;1874;1245;ListFischi1;0;;2;203;262941;9;133;2178;265119;258;1;1906;1;2168;396;1648;1;1
TMS_Ibrahim;39;2;"<?xml version=""1.0""?>\n<Clock xmlns:dt=""urn:schemas-microsoft-com:datatypes""><Description dt:dt=""string"">E-Prime Primary Realtime Clock</Description><StartTime><Timestamp dt:dt=""int"">0</Timestamp><DateUtc dt:dt=""string"">2022-09-06T09:55:03Z</DateUtc></StartTime><FrequencyChanges><FrequencyChange><Frequency dt:dt=""r8"">3312871</Frequency><Timestamp dt:dt=""r8"">27678923089</Timestamp><Current dt:dt=""r8"">0</Current><DateUtc dt:dt=""string"">2022-09-06T09:55:03Z</DateUtc></FrequencyChange></FrequencyChanges></Clock>\n";TMS_Ibrahim-39-2;7503;100561;1;;1909784658;2010242;2010242;09/06/2022;06/09/2022 09:55;11:55:03;2010147;0;;-999999;22;15808;0;1;1616;17424;1;1;1;2;1;0;1;BlockProcFischi;BlockList;1;125;0;;-999999;13;19909;0;1;4175;24084;1;1;1;1;ProcFischi1;ListBlockFischi;29;1;2;1;0;5;Prmod_B;125;1;op;5;2;16;1;29;1;0;TrialProc;2295;1314;Prmod_B;346;1992;1647;ListFischi1;0;;2;203;271577;10;15;2022;273599;374;1;2022;1;1711;404;1648;1;1
TMS_Ibrahim;39;2;"<?xml version=""1.0""?>\n<Clock xmlns:dt=""urn:schemas-microsoft-com:datatypes""><Description dt:dt=""string"">E-Prime Primary Realtime Clock</Description><StartTime><Timestamp dt:dt=""int"">0</Timestamp><DateUtc dt:dt=""string"">2022-09-06T09:55:03Z</DateUtc></StartTime><FrequencyChanges><FrequencyChange><Frequency dt:dt=""r8"">3312871</Frequency><Timestamp dt:dt=""r8"">27678923089</Timestamp><Current dt:dt=""r8"">0</Current><DateUtc dt:dt=""string"">2022-09-06T09:55:03Z</DateUtc></FrequencyChange></FrequencyChanges></Clock>\n";TMS_Ibrahim-39-2;7503;100561;1;;1909784658;2010242;2010242;09/06/2022;06/09/2022 09:55;11:55:03;2010147;0;;-999999;22;15808;0;1;1616;17424;1;1;1;2;1;0;1;BlockProcFischi;BlockList;1;125;0;;-999999;13;19909;0;1;4175;24084;1;1;1;1;ProcFischi1;ListBlockFischi;30;1;2;0;1;5;Pr8_B;125;1;op;5;2;10;1;30;1;0;TrialProc;1801;714;Pr8_B;91;1830;1739;ListFischi1;0;;2;203;281119;11;15;1856;282975;416;1;1856;1;1695;490;1440;1;1
TMS_Ibrahim;39;2;"<?xml version=""1.0""?>\n<Clock xmlns:dt=""urn:schemas-microsoft-com:datatypes""><Description dt:dt=""string"">E-Prime Primary Realtime Clock</Description><StartTime><Timestamp dt:dt=""int"">0</Timestamp><DateUtc dt:dt=""string"">2022-09-06T09:55:03Z</DateUtc></StartTime><FrequencyChanges><FrequencyChange><Frequency dt:dt=""r8"">3312871</Frequency><Timestamp dt:dt=""r8"">27678923089</Timestamp><Current dt:dt=""r8"">0</Current><DateUtc dt:dt=""string"">2022-09-06T09:55:03Z</DateUtc></FrequencyChange></FrequencyChanges></Clock>\n";TMS_Ibrahim-39-2;7503;100561;1;;1909784658;2010242;2010242;09/06/2022;06/09/2022 09:55;11:55:03;2010147;0;;-999999;22;15808;0;1;1616;17424;1;1;1;2;1;0;1;BlockProcFischi;BlockList;1;125;0;;-999999;13;19909;0;1;4175;24084;1;1;1;1;ProcFischi1;ListBlockFischi;31;1;2;0;0;5;Pr4_B;100;1;op;5;2;8;1;31;1;0;TrialProc;2205;676;Pr4_B;198;1447;1249;ListFischi1;0;;2;203;290075;12;15;1475;291550;339;1;1475;1;1232;516;1136;1;1
TMS_Ibrahim;39;2;"<?xml version=""1.0""?>\n<Clock xmlns:dt=""urn:schemas-microsoft-com:datatypes""><Description dt:dt=""string"">E-Prime Primary Realtime Clock</Description><StartTime><Timestamp dt:dt=""int"">0</Timestamp><DateUtc dt:dt=""string"">2022-09-06T09:55:03Z</DateUtc></StartTime><FrequencyChanges><FrequencyChange><Frequency dt:dt=""r8"">3312871</Frequency><Timestamp dt:dt=""r8"">27678923089</Timestamp><Current dt:dt=""r8"">0</Current><DateUtc dt:dt=""string"">2022-09-06T09:55:03Z</DateUtc></FrequencyChange></FrequencyChanges></Clock>\n";TMS_Ibrahim-39-2;7503;100561;1;;1909784658;2010242;2010242;09/06/2022;06/09/2022 09:55;11:55:03;2010147;0;;-999999;22;15808;0;1;1616;17424;1;1;1;2;1;0;1;BlockProcFischi;BlockList;1;125;0;;-999999;13;19909;0;1;4175;24084;1;1;1;1;ProcFischi1;ListBlockFischi;32;1;1;0;1;5;Po8_B;150;4;ug;5;2;58;1;32;4;1;TrialProc;2596;1243;Po8_B;3;1578;1575;ListFischi1;0;;2;203;298156;7;151;4322;302478;322;1;1602;1;1064;490;1280;1;1
TMS_Ibrahim;39;2;"<?xml version=""1.0""?>\n<Clock xmlns:dt=""urn:schemas-microsoft-com:datatypes""><Description dt:dt=""string"">E-Prime Primary Realtime Clock</Description><StartTime><Timestamp dt:dt=""int"">0</Timestamp><DateUtc dt:dt=""string"">2022-09-06T09:55:03Z</DateUtc></StartTime><FrequencyChanges><FrequencyChange><Frequency dt:dt=""r8"">3312871</Frequency><Timestamp dt:dt=""r8"">27678923089</Timestamp><Current dt:dt=""r8"">0</Current><DateUtc dt:dt=""string"">2022-09-06T09:55:03Z</DateUtc></FrequencyChange></FrequencyChanges></Clock>\n";TMS_Ibrahim-39-2;7503;100561;1;;1909784658;2010242;2010242;09/06/2022;06/09/2022 09:55;11:55:03;2010147;0;;-999999;22;15808;0;1;1616;17424;1;1;1;2;1;0;1;BlockProcFischi;BlockList;1;125;0;;-999999;13;19909;0;1;4175;24084;1;1;1;1;ProcFischi1;ListBlockFischi;33;1;1;0;0;5;Po5_B;125;4;ug;5;2;57;1;33;4;1;TrialProc;3375;977;Po5_B;26;1445;1471;ListFischi1;0;;2;203;306740;7;155;2650;309390;218;1;1466;1;1415;481;1248;1;1
TMS_Ibrahim;39;2;"<?xml version=""1.0""?>\n<Clock xmlns:dt=""urn:schemas-microsoft-com:datatypes""><Description dt:dt=""string"">E-Prime Primary Realtime Clock</Description><StartTime><Timestamp dt:dt=""int"">0</Timestamp><DateUtc dt:dt=""string"">2022-09-06T09:55:03Z</DateUtc></StartTime><FrequencyChanges><FrequencyChange><Frequency dt:dt=""r8"">3312871</Frequency><Timestamp dt:dt=""r8"">27678923089</Timestamp><Current dt:dt=""r8"">0</Current><DateUtc dt:dt=""string"">2022-09-06T09:55:03Z</DateUtc></FrequencyChange></FrequencyChanges></Clock>\n";TMS_Ibrahim-39-2;7503;100561;1;;1909784658;2010242;2010242;09/06/2022;06/09/2022 09:55;11:55:03;2010147;0;;-999999;22;15808;0;1;1616;17424;1;1;1;2;1;0;1;BlockProcFischi;BlockList;1;125;0;;-999999;13;19909;0;1;4175;24084;1;1;1;1;ProcFischi1;ListBlockFischi;34;1;1;0;0;3;Po4_B;100;2;op;3;2;35;1;34;2;0;TrialProc;3451;1335;Po4_B;214;1495;1709;ListFischi1;0;;2;203;316084;6;13;1529;317613;345;1;1529;1;1970;521;1184;1;1
TMS_Ibrahim;39;2;"<?xml version=""1.0""?>\n<Clock xmlns:dt=""urn:schemas-microsoft-com:datatypes""><Description dt:dt=""string"">E-Prime Primary Realtime Clock</Description><StartTime><Timestamp dt:dt=""int"">0</Timestamp><DateUtc dt:dt=""string"">2022-09-06T09:55:03Z</DateUtc></StartTime><FrequencyChanges><FrequencyChange><Frequency dt:dt=""r8"">3312871</Frequency><Timestamp dt:dt=""r8"">27678923089</Timestamp><Current dt:dt=""r8"">0</Current><DateUtc dt:dt=""string"">2022-09-06T09:55:03Z</DateUtc></FrequencyChange></FrequencyChanges></Clock>\n";TMS_Ibrahim-39-2;7503;100561;1;;1909784658;2010242;2010242;09/06/2022;06/09/2022 09:55;11:55:03;2010147;0;;-999999;22;15808;0;1;1616;17424;1;1;1;2;1;0;1;BlockProcFischi;BlockList;1;125;0;;-999999;13;19909;0;1;4175;24084;1;1;1;1;ProcFischi1;ListBlockFischi;35;1;2;0;1;5;Pr4_B;100;1;op;5;2;13;1;35;1;0;TrialProc;3264;677;Pr4_B;120;1370;1250;ListFischi1;0;;2;203;326205;14;15;1392;327597;356;1;1392;1;1666;468;1036;1;1
TMS_Ibrahim;39;2;"<?xml version=""1.0""?>\n<Clock xmlns:dt=""urn:schemas-microsoft-com:datatypes""><Description dt:dt=""string"">E-Prime Primary Realtime Clock</Description><StartTime><Timestamp dt:dt=""int"">0</Timestamp><DateUtc dt:dt=""string"">2022-09-06T09:55:03Z</DateUtc></StartTime><FrequencyChanges><FrequencyChange><Frequency dt:dt=""r8"">3312871</Frequency><Timestamp dt:dt=""r8"">27678923089</Timestamp><Current dt:dt=""r8"">0</Current><DateUtc dt:dt=""string"">2022-09-06T09:55:03Z</DateUtc></FrequencyChange></FrequencyChanges></Clock>\n";TMS_Ibrahim-39-2;7503;100561;1;;1909784658;2010242;2010242;09/06/2022;06/09/2022 09:55;11:55:03;2010147;0;;-999999;22;15808;0;1;1616;17424;1;1;1;2;1;0;1;BlockProcFischi;BlockList;1;125;0;;-999999;13;19909;0;1;4175;24084;1;1;1;1;ProcFischi1;ListBlockFischi;36;1;1;0;0;5;Po3_B;100;4;ug;5;2;60;1;36;4;1;TrialProc;2161;1309;Po3_B;57;1520;1577;ListFischi1;0;;2;203;335395;7;15;1546;336941;314;1;1546;1;1120;248;1232;1;1
TMS_Ibrahim;39;2;"<?xml version=""1.0""?>\n<Clock xmlns:dt=""urn:schemas-microsoft-com:datatypes""><Description dt:dt=""string"">E-Prime Primary Realtime Clock</Description><StartTime><Timestamp dt:dt=""int"">0</Timestamp><DateUtc dt:dt=""string"">2022-09-06T09:55:03Z</DateUtc></StartTime><FrequencyChanges><FrequencyChange><Frequency dt:dt=""r8"">3312871</Frequency><Timestamp dt:dt=""r8"">27678923089</Timestamp><Current dt:dt=""r8"">0</Current><DateUtc dt:dt=""string"">2022-09-06T09:55:03Z</DateUtc></FrequencyChange></FrequencyChanges></Clock>\n";TMS_Ibrahim-39-2;7503;100561;1;;1909784658;2010242;2010242;09/06/2022;06/09/2022 09:55;11:55:03;2010147;0;;-999999;22;15808;0;1;1616;17424;1;1;1;2;1;0;1;BlockProcFischi;BlockList;1;125;0;;-999999;13;19909;0;1;4175;24084;1;1;1;1;ProcFischi1;ListBlockFischi;37;1;1;0;1;3;Po2_B;100;2;op;3;2;43;1;37;2;0;TrialProc;3620;1585;Po2_B;30;1782;1811;ListFischi1;0;;2;203;344023;16;13;1813;345836;693;1;1813;1;1153;581;1120;1;1
TMS_Ibrahim;39;2;"<?xml version=""1.0""?>\n<Clock xmlns:dt=""urn:schemas-microsoft-com:datatypes""><Description dt:dt=""string"">E-Prime Primary Realtime Clock</Description><StartTime><Timestamp dt:dt=""int"">0</Timestamp><DateUtc dt:dt=""string"">2022-09-06T09:55:03Z</DateUtc></StartTime><FrequencyChanges><FrequencyChange><Frequency dt:dt=""r8"">3312871</Frequency><Timestamp dt:dt=""r8"">27678923089</Timestamp><Current dt:dt=""r8"">0</Current><DateUtc dt:dt=""string"">2022-09-06T09:55:03Z</DateUtc></FrequencyChange></FrequencyChanges></Clock>\n";TMS_Ibrahim-39-2;7503;100561;1;;1909784658;2010242;2010242;09/06/2022;06/09/2022 09:55;11:55:03;2010147;0;;-999999;22;15808;0;1;1616;17424;1;1;1;2;1;0;1;BlockProcFischi;BlockList;1;125;0;;-999999;13;19909;0;1;4175;24084;1;1;1;1;ProcFischi1;ListBlockFischi;38;1;1;0;0;5;Po8_B;75;4;ug;5;2;53;1;38;4;1;TrialProc;3812;1253;Po8_B;164;1422;1587;ListFischi1;0;;2;203;353058;17;15;1450;354508;330;1;1450;1;1420;474;1120;1;1
TMS_Ibrahim;39;2;"<?xml version=""1.0""?>\n<Clock xmlns:dt=""urn:schemas-microsoft-com:datatypes""><Description dt:dt=""string"">E-Prime Primary Realtime Clock</Description><StartTime><Timestamp dt:dt=""int"">0</Timestamp><DateUtc dt:dt=""string"">2022-09-06T09:55:03Z</DateUtc></StartTime><FrequencyChanges><FrequencyChange><Frequency dt:dt=""r8"">3312871</Frequency><Timestamp dt:dt=""r8"">27678923089</Timestamp><Current dt:dt=""r8"">0</Current><DateUtc dt:dt=""string"">2022-09-06T09:55:03Z</DateUtc></FrequencyChange></FrequencyChanges></Clock>\n";TMS_Ibrahim-39-2;7503;100561;1;;1909784658;2010242;2010242;09/06/2022;06/09/2022 09:55;11:55:03;2010147;0;;-999999;22;15808;0;1;1616;17424;1;1;1;2;1;0;1;BlockProcFischi;BlockList;1;125;0;;-999999;13;19909;0;1;4175;24084;1;1;1;1;ProcFischi1;ListBlockFischi;39;1;2;1;1;3;Prmod_B;125;3;ug;3;2;32;1;39;3;1;TrialProc;3570;1315;Prmod_B;163;1812;1649;ListFischi1;0;;2;203;363193;12;13;1843;365036;83;1;1843;1;3028;229;1760;1;1
TMS_Ibrahim;39;2;"<?xml version=""1.0""?>\n<Clock xmlns:dt=""urn:schemas-microsoft-com:datatypes""><Description dt:dt=""string"">E-Prime Primary Realtime Clock</Description><StartTime><Timestamp dt:dt=""int"">0</Timestamp><DateUtc dt:dt=""string"">2022-09-06T09:55:03Z</DateUtc></StartTime><FrequencyChanges><FrequencyChange><Frequency dt:dt=""r8"">3312871</Frequency><Timestamp dt:dt=""r8"">27678923089</Timestamp><Current dt:dt=""r8"">0</Current><DateUtc dt:dt=""string"">2022-09-06T09:55:03Z</DateUtc></FrequencyChange></FrequencyChanges></Clock>\n";TMS_Ibrahim-39-2;7503;100561;1;;1909784658;2010242;2010242;09/06/2022;06/09/2022 09:55;11:55:03;2010147;0;;-999999;22;15808;0;1;1616;17424;1;1;1;2;1;0;1;BlockProcFischi;BlockList;1;125;0;;-999999;13;19909;0;1;4175;24084;1;1;1;1;ProcFischi1;ListBlockFischi;40;1;1;0;0;3;Po3_B;75;2;op;3;2;34;1;40;2;0;TrialProc;3410;1310;Po3_B;62;1516;1577;ListFischi1;0;;2;203;375393;7;13;1546;376939;442;1;1546;1;2761;353;1104;1;1
TMS_Ibrahim;39;2;"<?xml version=""1.0""?>\n<Clock xmlns:dt=""urn:schemas-microsoft-com:datatypes""><Description dt:dt=""string"">E-Prime Primary Realtime Clock</Description><StartTime><Timestamp dt:dt=""int"">0</Timestamp><DateUtc dt:dt=""string"">2022-09-06T09:55:03Z</DateUtc></StartTime><FrequencyChanges><FrequencyChange><Frequency dt:dt=""r8"">3312871</Frequency><Timestamp dt:dt=""r8"">27678923089</Timestamp><Current dt:dt=""r8"">0</Current><DateUtc dt:dt=""string"">2022-09-06T09:55:03Z</DateUtc></FrequencyChange></FrequencyChanges></Clock>\n";TMS_Ibrahim-39-2;7503;100561;1;;1909784658;2010242;2010242;09/06/2022;06/09/2022 09:55;11:55:03;2010147;0;;-999999;22;15808;0;1;1616;17424;1;1;1;2;1;0;1;BlockProcFischi;BlockList;1;125;0;;-999999;13;19909;0;1;4175;24084;1;1;1;1;ProcFischi1;ListBlockFischi;41;1;2;0;2;3;Pr3_B;125;3;ug;3;2;28;1;41;3;1;TrialProc;4608;718;Pr3_B;47;1670;1718;ListFischi1;0;;2;203;387086;16;133;2621;389707;525;1;1693;1;1941;328;1168;1;1
TMS_Ibrahim;39;2;"<?xml version=""1.0""?>\n<Clock xmlns:dt=""urn:schemas-microsoft-com:datatypes""><Description dt:dt=""string"">E-Prime Primary Realtime Clock</Description><StartTime><Timestamp dt:dt=""int"">0</Timestamp><DateUtc dt:dt=""string"">2022-09-06T09:55:03Z</DateUtc></StartTime><FrequencyChanges><FrequencyChange><Frequency dt:dt=""r8"">3312871</Frequency><Timestamp dt:dt=""r8"">27678923089</Timestamp><Current dt:dt=""r8"">0</Current><DateUtc dt:dt=""string"">2022-09-06T09:55:03Z</DateUtc></FrequencyChange></FrequencyChanges></Clock>\n";TMS_Ibrahim-39-2;7503;100561;1;;1909784658;2010242;2010242;09/06/2022;06/09/2022 09:55;11:55:03;2010147;0;;-999999;22;15808;0;1;1616;17424;1;1;1;2;1;0;1;BlockProcFischi;BlockList;1;125;0;;-999999;13;19909;0;1;4175;24084;1;1;1;1;ProcFischi1;ListBlockFischi;42;1;2;0;1;5;Pr2_B;100;1;op;5;2;11;1;42;1;0;TrialProc;2449;716;Pr2_B;150;1400;1249;ListFischi1;0;;2;203;399218;13;15;1433;400651;297;1;1433;1;1185;421;1136;1;1
TMS_Ibrahim;39;2;"<?xml version=""1.0""?>\n<Clock xmlns:dt=""urn:schemas-microsoft-com:datatypes""><Description dt:dt=""string"">E-Prime Primary Realtime Clock</Description><StartTime><Timestamp dt:dt=""int"">0</Timestamp><DateUtc dt:dt=""string"">2022-09-06T09:55:03Z</DateUtc></StartTime><FrequencyChanges><FrequencyChange><Frequency dt:dt=""r8"">3312871</Frequency><Timestamp dt:dt=""r8"">27678923089</Timestamp><Current dt:dt=""r8"">0</Current><DateUtc dt:dt=""string"">2022-09-06T09:55:03Z</DateUtc></FrequencyChange></FrequencyChanges></Clock>\n";TMS_Ibrahim-39-2;7503;100561;1;;1909784658;2010242;2010242;09/06/2022;06/09/2022 09:55;11:55:03;2010147;0;;-999999;22;15808;0;1;1616;17424;1;1;1;2;1;0;1;BlockProcFischi;BlockList;1;125;0;;-999999;13;19909;0;1;4175;24084;1;1;1;1;ProcFischi1;ListBlockFischi;43;1;1;0;1;5;Po5_B;75;4;ug;5;2;62;1;43;4;1;TrialProc;2148;977;Po5_B;65;1535;1471;ListFischi1;0;;2;203;408340;7;15;1558;409898;326;1;1558;1;1255;453;1232;1;1
TMS_Ibrahim;39;2;"<?xml version=""1.0""?>\n<Clock xmlns:dt=""urn:schemas-microsoft-com:datatypes""><Description dt:dt=""string"">E-Prime Primary Realtime Clock</Description><StartTime><Timestamp dt:dt=""int"">0</Timestamp><DateUtc dt:dt=""string"">2022-09-06T09:55:03Z</DateUtc></StartTime><FrequencyChanges><FrequencyChange><Frequency dt:dt=""r8"">3312871</Frequency><Timestamp dt:dt=""r8"">27678923089</Timestamp><Current dt:dt=""r8"">0</Current><DateUtc dt:dt=""string"">2022-09-06T09:55:03Z</DateUtc></FrequencyChange></FrequencyChanges></Clock>\n";TMS_Ibrahim-39-2;7503;100561;1;;1909784658;2010242;2010242;09/06/2022;06/09/2022 09:55;11:55:03;2010147;0;;-999999;22;15808;0;1;1616;17424;1;1;1;2;1;0;1;BlockProcFischi;BlockList;1;125;0;;-999999;13;19909;0;1;4175;24084;1;1;1;1;ProcFischi1;ListBlockFischi;44;1;2;0;0;3;Pr4_B;100;3;ug;3;2;24;1;44;3;1;TrialProc;2476;681;Pr4_B;163;1417;1254;ListFischi1;0;;2;203;417447;17;13;1443;418890;419;1;1443;1;1353;521;1024;1;1
TMS_Ibrahim;39;2;"<?xml version=""1.0""?>\n<Clock xmlns:dt=""urn:schemas-microsoft-com:datatypes""><Description dt:dt=""string"">E-Prime Primary Realtime Clock</Description><StartTime><Timestamp dt:dt=""int"">0</Timestamp><DateUtc dt:dt=""string"">2022-09-06T09:55:03Z</DateUtc></StartTime><FrequencyChanges><FrequencyChange><Frequency dt:dt=""r8"">3312871</Frequency><Timestamp dt:dt=""r8"">27678923089</Timestamp><Current dt:dt=""r8"">0</Current><DateUtc dt:dt=""string"">2022-09-06T09:55:03Z</DateUtc></FrequencyChange></FrequencyChanges></Clock>\n";TMS_Ibrahim-39-2;7503;100561;1;;1909784658;2010242;2010242;09/06/2022;06/09/2022 09:55;11:55:03;2010147;0;;-999999;22;15808;0;1;1616;17424;1;1;1;2;1;0;1;BlockProcFischi;BlockList;1;125;0;;-999999;13;19909;0;1;4175;24084;1;1;1;1;ProcFischi1;ListBlockFischi;45;1;2;0;2;5;Pr3_B;100;1;op;5;2;12;1;45;1;0;TrialProc;2291;709;Pr3_B;235;1944;1709;ListFischi1;0;;2;203;425974;6;155;3204;429178;196;1;1972;1;1293;453;1776;1;1
TMS_Ibrahim;39;2;"<?xml version=""1.0""?>\n<Clock xmlns:dt=""urn:schemas-microsoft-com:datatypes""><Description dt:dt=""string"">E-Prime Primary Realtime Clock</Description><StartTime><Timestamp dt:dt=""int"">0</Timestamp><DateUtc dt:dt=""string"">2022-09-06T09:55:03Z</DateUtc></StartTime><FrequencyChanges><FrequencyChange><Frequency dt:dt=""r8"">3312871</Frequency><Timestamp dt:dt=""r8"">27678923089</Timestamp><Current dt:dt=""r8"">0</Current><DateUtc dt:dt=""string"">2022-09-06T09:55:03Z</DateUtc></FrequencyChange></FrequencyChanges></Clock>\n";TMS_Ibrahim-39-2;7503;100561;1;;1909784658;2010242;2010242;09/06/2022;06/09/2022 09:55;11:55:03;2010147;0;;-999999;22;15808;0;1;1616;17424;1;1;1;2;1;0;1;BlockProcFischi;BlockList;1;125;0;;-999999;13;19909;0;1;4175;24084;1;1;1;1;ProcFischi1;ListBlockFischi;46;1;2;0;0;5;Pr2_B;125;1;op;5;2;1;1;46;1;0;TrialProc;1596;709;Pr2_B;116;1359;1242;ListFischi1;0;;2;203;434944;6;15;1385;436329;282;1;1385;1;646;423;1103;1;1
TMS_Ibrahim;39;2;"<?xml version=""1.0""?>\n<Clock xmlns:dt=""urn:schemas-microsoft-com:datatypes""><Description dt:dt=""string"">E-Prime Primary Realtime Clock</Description><StartTime><Timestamp dt:dt=""int"">0</Timestamp><DateUtc dt:dt=""string"">2022-09-06T09:55:03Z</DateUtc></StartTime><FrequencyChanges><FrequencyChange><Frequency dt:dt=""r8"">3312871</Frequency><Timestamp dt:dt=""r8"">27678923089</Timestamp><Current dt:dt=""r8"">0</Current><DateUtc dt:dt=""string"">2022-09-06T09:55:03Z</DateUtc></FrequencyChange></FrequencyChanges></Clock>\n";TMS_Ibrahim-39-2;7503;100561;1;;1909784658;2010242;2010242;09/06/2022;06/09/2022 09:55;11:55:03;2010147;0;;-999999;22;15808;0;1;1616;17424;1;1;1;2;1;0;1;BlockProcFischi;BlockList;1;125;0;;-999999;13;19909;0;1;4175;24084;1;1;1;1;ProcFischi1;ListBlockFischi;47;1;2;0;1;3;Pr5_B;100;3;ug;3;2;25;1;47;3;1;TrialProc;2780;682;Pr5_B;253;1535;1281;ListFischi1;0;;2;203;443102;18;13;1563;444665;267;1;1563;1;1428;479;1296;1;1
TMS_Ibrahim;39;2;"<?xml version=""1.0""?>\n<Clock xmlns:dt=""urn:schemas-microsoft-com:datatypes""><Description dt:dt=""string"">E-Prime Primary Realtime Clock</Description><StartTime><Timestamp dt:dt=""int"">0</Timestamp><DateUtc dt:dt=""string"">2022-09-06T09:55:03Z</DateUtc></StartTime><FrequencyChanges><FrequencyChange><Frequency dt:dt=""r8"">3312871</Frequency><Timestamp dt:dt=""r8"">27678923089</Timestamp><Current dt:dt=""r8"">0</Current><DateUtc dt:dt=""string"">2022-09-06T09:55:03Z</DateUtc></FrequencyChange></FrequencyChanges></Clock>\n";TMS_Ibrahim-39-2;7503;100561;1;;1909784658;2010242;2010242;09/06/2022;06/09/2022 09:55;11:55:03;2010147;0;;-999999;22;15808;0;1;1616;17424;1;1;1;2;1;0;1;BlockProcFischi;BlockList;1;125;0;;-999999;13;19909;0;1;4175;24084;1;1;1;1;ProcFischi1;ListBlockFischi;48;1;1;1;1;5;Pomod_B;75;4;ug;5;2;63;1;48;4;1;TrialProc;1755;1312;Pomod_B;279;1952;1672;ListFischi1;0;;2;203;451628;9;15;1981;453609;541;1;1981;1;1393;459;1440;1;1
TMS_Ibrahim;39;2;"<?xml version=""1.0""?>\n<Clock xmlns:dt=""urn:schemas-microsoft-com:datatypes""><Description dt:dt=""string"">E-Prime Primary Realtime Clock</Description><StartTime><Timestamp dt:dt=""int"">0</Timestamp><DateUtc dt:dt=""string"">2022-09-06T09:55:03Z</DateUtc></StartTime><FrequencyChanges><FrequencyChange><Frequency dt:dt=""r8"">3312871</Frequency><Timestamp dt:dt=""r8"">27678923089</Timestamp><Current dt:dt=""r8"">0</Current><DateUtc dt:dt=""string"">2022-09-06T09:55:03Z</DateUtc></FrequencyChange></FrequencyChanges></Clock>\n";TMS_Ibrahim-39-2;7503;100561;1;;1909784658;2010242;2010242;09/06/2022;06/09/2022 09:55;11:55:03;2010147;0;;-999999;22;15808;0;1;1616;17424;1;1;1;2;1;0;1;BlockProcFischi;BlockList;1;125;0;;-999999;13;19909;0;1;4175;24084;1;1;1;1;ProcFischi1;ListBlockFischi;49;1;1;0;2;5;Po2_B;75;4;ug;5;2;54;1;49;4;1;TrialProc;3240;1584;Po2_B;108;1702;1810;ListFischi1;0;;2;203;460086;14;15;1731;461817;243;1;1731;1;1225;402;1488;1;1
TMS_Ibrahim;39;2;"<?xml version=""1.0""?>\n<Clock xmlns:dt=""urn:schemas-microsoft-com:datatypes""><Description dt:dt=""string"">E-Prime Primary Realtime Clock</Description><StartTime><Timestamp dt:dt=""int"">0</Timestamp><DateUtc dt:dt=""string"">2022-09-06T09:55:03Z</DateUtc></StartTime><FrequencyChanges><FrequencyChange><Frequency dt:dt=""r8"">3312871</Frequency><Timestamp dt:dt=""r8"">27678923089</Timestamp><Current dt:dt=""r8"">0</Current><DateUtc dt:dt=""string"">2022-09-06T09:55:03Z</DateUtc></FrequencyChange></FrequencyChanges></Clock>\n";TMS_Ibrahim-39-2;7503;100561;1;;1909784658;2010242;2010242;09/06/2022;06/09/2022 09:55;11:55:03;2010147;0;;-999999;22;15808;0;1;1616;17424;1;1;1;2;1;0;1;BlockProcFischi;BlockList;1;125;0;;-999999;13;19909;0;1;4175;24084;1;1;1;1;ProcFischi1;ListBlockFischi;50;1;2;0;0;5;Pr5_B;125;1;op;5;2;4;1;50;1;0;TrialProc;3463;680;Pr5_B;194;1473;1280;ListFischi1;0;;2;203;469547;16;15;1501;471048;285;1;1501;1;1147;300;1216;1;1
TMS_Ibrahim;39;2;"<?xml version=""1.0""?>\n<Clock xmlns:dt=""urn:schemas-microsoft-com:datatypes""><Description dt:dt=""string"">E-Prime Primary Realtime Clock</Description><StartTime><Timestamp dt:dt=""int"">0</Timestamp><DateUtc dt:dt=""string"">2022-09-06T09:55:03Z</DateUtc></StartTime><FrequencyChanges><FrequencyChange><Frequency dt:dt=""r8"">3312871</Frequency><Timestamp dt:dt=""r8"">27678923089</Timestamp><Current dt:dt=""r8"">0</Current><DateUtc dt:dt=""string"">2022-09-06T09:55:03Z</DateUtc></FrequencyChange></FrequencyChanges></Clock>\n";TMS_Ibrahim-39-2;7503;100561;1;;1909784658;2010242;2010242;09/06/2022;06/09/2022 09:55;11:55:03;2010147;0;;-999999;22;15808;0;1;1616;17424;1;1;1;2;1;0;1;BlockProcFischi;BlockList;1;125;0;;-999999;13;19909;0;1;4175;24084;1;1;1;1;ProcFischi1;ListBlockFischi;51;1;1;0;0;5;Po3_B;100;4;ug;5;2;55;1;51;4;1;TrialProc;2045;1314;Po3_B;85;1663;1579;ListFischi1;0;;2;203;478417;9;15;1687;480104;215;1;1687;1;1706;200;1472;1;1
TMS_Ibrahim;39;2;"<?xml version=""1.0""?>\n<Clock xmlns:dt=""urn:schemas-microsoft-com:datatypes""><Description dt:dt=""string"">E-Prime Primary Realtime Clock</Description><StartTime><Timestamp dt:dt=""int"">0</Timestamp><DateUtc dt:dt=""string"">2022-09-06T09:55:03Z</DateUtc></StartTime><FrequencyChanges><FrequencyChange><Frequency dt:dt=""r8"">3312871</Frequency><Timestamp dt:dt=""r8"">27678923089</Timestamp><Current dt:dt=""r8"">0</Current><DateUtc dt:dt=""string"">2022-09-06T09:55:03Z</DateUtc></FrequencyChange></FrequencyChanges></Clock>\n";TMS_Ibrahim-39-2;7503;100561;1;;1909784658;2010242;2010242;09/06/2022;06/09/2022 09:55;11:55:03;2010147;0;;-999999;22;15808;0;1;1616;17424;1;1;1;2;1;0;1;BlockProcFischi;BlockList;1;125;0;;-999999;13;19909;0;1;4175;24084;1;1;1;1;ProcFischi1;ListBlockFischi;52;1;2;0;2;3;Pr4_B;100;3;ug;3;2;19;1;52;3;1;TrialProc;2011;674;Pr4_B;66;1315;1248;ListFischi1;0;;2;203;486665;12;13;1343;488008;383;1;1343;1;1472;519;960;1;1
TMS_Ibrahim;39;2;"<?xml version=""1.0""?>\n<Clock xmlns:dt=""urn:schemas-microsoft-com:datatypes""><Description dt:dt=""string"">E-Prime Primary Realtime Clock</Description><StartTime><Timestamp dt:dt=""int"">0</Timestamp><DateUtc dt:dt=""string"">2022-09-06T09:55:03Z</DateUtc></StartTime><FrequencyChanges><FrequencyChange><Frequency dt:dt=""r8"">3312871</Frequency><Timestamp dt:dt=""r8"">27678923089</Timestamp><Current dt:dt=""r8"">0</Current><DateUtc dt:dt=""string"">2022-09-06T09:55:03Z</DateUtc></FrequencyChange></FrequencyChanges></Clock>\n";TMS_Ibrahim-39-2;7503;100561;1;;1909784658;2010242;2010242;09/06/2022;06/09/2022 09:55;11:55:03;2010147;0;;-999999;22;15808;0;1;1616;17424;1;1;1;2;1;0;1;BlockProcFischi;BlockList;1;125;0;;-999999;13;19909;0;1;4175;24084;1;1;1;1;ProcFischi1;ListBlockFischi;53;1;2;0;0;3;Pr8_B;75;3;ug;3;2;26;1;53;3;1;TrialProc;3853;712;Pr8_B;4;1733;1738;ListFischi1;0;;2;203;495130;10;13;1758;496888;222;1;1758;1;942;386;1536;1;1
TMS_Ibrahim;39;2;"<?xml version=""1.0""?>\n<Clock xmlns:dt=""urn:schemas-microsoft-com:datatypes""><Description dt:dt=""string"">E-Prime Primary Realtime Clock</Description><StartTime><Timestamp dt:dt=""int"">0</Timestamp><DateUtc dt:dt=""string"">2022-09-06T09:55:03Z</DateUtc></StartTime><FrequencyChanges><FrequencyChange><Frequency dt:dt=""r8"">3312871</Frequency><Timestamp dt:dt=""r8"">27678923089</Timestamp><Current dt:dt=""r8"">0</Current><DateUtc dt:dt=""string"">2022-09-06T09:55:03Z</DateUtc></FrequencyChange></FrequencyChanges></Clock>\n";TMS_Ibrahim-39-2;7503;100561;1;;1909784658;2010242;2010242;09/06/2022;06/09/2022 09:55;11:55:03;2010147;0;;-999999;22;15808;0;1;1616;17424;1;1;1;2;1;0;1;BlockProcFischi;BlockList;1;125;0;;-999999;13;19909;0;1;4175;24084;1;1;1;1;ProcFischi1;ListBlockFischi;54;1;2;0;1;5;Pr5_B;125;1;op;5;2;14;1;54;1;0;TrialProc;3407;681;Pr5_B;187;1469;1282;ListFischi1;0;;2;203;504932;17;155;2547;507479;359;1;1491;1;1436;269;1132;1;1
TMS_Ibrahim;39;2;"<?xml version=""1.0""?>\n<Clock xmlns:dt=""urn:schemas-microsoft-com:datatypes""><Description dt:dt=""string"">E-Prime Primary Realtime Clock</Description><StartTime><Timestamp dt:dt=""int"">0</Timestamp><DateUtc dt:dt=""string"">2022-09-06T09:55:03Z</DateUtc></StartTime><FrequencyChanges><FrequencyChange><Frequency dt:dt=""r8"">3312871</Frequency><Timestamp dt:dt=""r8"">27678923089</Timestamp><Current dt:dt=""r8"">0</Current><DateUtc dt:dt=""string"">2022-09-06T09:55:03Z</DateUtc></FrequencyChange></FrequencyChanges></Clock>\n";TMS_Ibrahim-39-2;7503;100561;1;;1909784658;2010242;2010242;09/06/2022;06/09/2022 09:55;11:55:03;2010147;0;;-999999;22;15808;0;1;1616;17424;1;1;1;2;1;0;1;BlockProcFischi;BlockList;1;125;0;;-999999;13;19909;0;1;4175;24084;1;1;1;1;ProcFischi1;ListBlockFischi;55;1;1;0;0;3;Po8_B;75;2;op;3;2;37;1;55;2;0;TrialProc;2947;1246;Po8_B;66;1645;1578;ListFischi1;0;;3;201;512844;9;13;1675;514519;491;1;1675;1;1192;271;1184;1;1
TMS_Ibrahim;39;2;"<?xml version=""1.0""?>\n<Clock xmlns:dt=""urn:schemas-microsoft-com:datatypes""><Description dt:dt=""string"">E-Prime Primary Realtime Clock</Description><StartTime><Timestamp dt:dt=""int"">0</Timestamp><DateUtc dt:dt=""string"">2022-09-06T09:55:03Z</DateUtc></StartTime><FrequencyChanges><FrequencyChange><Frequency dt:dt=""r8"">3312871</Frequency><Timestamp dt:dt=""r8"">27678923089</Timestamp><Current dt:dt=""r8"">0</Current><DateUtc dt:dt=""string"">2022-09-06T09:55:03Z</DateUtc></FrequencyChange></FrequencyChanges></Clock>\n";TMS_Ibrahim-39-2;7503;100561;1;;1909784658;2010242;2010242;09/06/2022;06/09/2022 09:55;11:55:03;2010147;0;;-999999;22;15808;0;1;1616;17424;1;1;1;2;1;0;1;BlockProcFischi;BlockList;1;125;0;;-999999;13;19909;0;1;4175;24084;1;1;1;1;ProcFischi1;ListBlockFischi;56;0;1;1;0;3;Pomod_B;;2;op;5;2;48;1;56;2;0;TrialProc;2918;1328;Pomod_B;173;1555;1729;ListFischi1;0;;5;210;523168;14;153;2727;525895;327;1;1591;1;1584;383;1264;1;0
TMS_Ibrahim;39;2;"<?xml version=""1.0""?>\n<Clock xmlns:dt=""urn:schemas-microsoft-com:datatypes""><Description dt:dt=""string"">E-Prime Primary Realtime Clock</Description><StartTime><Timestamp dt:dt=""int"">0</Timestamp><DateUtc dt:dt=""string"">2022-09-06T09:55:03Z</DateUtc></StartTime><FrequencyChanges><FrequencyChange><Frequency dt:dt=""r8"">3312871</Frequency><Timestamp dt:dt=""r8"">27678923089</Timestamp><Current dt:dt=""r8"">0</Current><DateUtc dt:dt=""string"">2022-09-06T09:55:03Z</DateUtc></FrequencyChange></FrequencyChanges></Clock>\n";TMS_Ibrahim-39-2;7503;100561;1;;1909784658;2010242;2010242;09/06/2022;06/09/2022 09:55;11:55:03;2010147;0;;-999999;22;15808;0;1;1616;17424;1;1;1;2;1;0;1;BlockProcFischi;BlockList;1;125;0;;-999999;13;19909;0;1;4175;24084;1;1;1;1;ProcFischi1;ListBlockFischi;57;1;2;1;0;3;Prmod_B;50;3;ug;3;2;31;1;57;3;1;TrialProc;3401;1309;Prmod_B;43;1686;1643;ListFischi1;0;;2;203;532919;6;13;1711;534630;354;1;1711;1;802;233;1357;1;1
TMS_Ibrahim;39;2;"<?xml version=""1.0""?>\n<Clock xmlns:dt=""urn:schemas-microsoft-com:datatypes""><Description dt:dt=""string"">E-Prime Primary Realtime Clock</Description><StartTime><Timestamp dt:dt=""int"">0</Timestamp><DateUtc dt:dt=""string"">2022-09-06T09:55:03Z</DateUtc></StartTime><FrequencyChanges><FrequencyChange><Frequency dt:dt=""r8"">3312871</Frequency><Timestamp dt:dt=""r8"">27678923089</Timestamp><Current dt:dt=""r8"">0</Current><DateUtc dt:dt=""string"">2022-09-06T09:55:03Z</DateUtc></FrequencyChange></FrequencyChanges></Clock>\n";TMS_Ibrahim-39-2;7503;100561;1;;1909784658;2010242;2010242;09/06/2022;06/09/2022 09:55;11:55:03;2010147;0;;-999999;22;15808;0;1;1616;17424;1;1;1;2;1;0;1;BlockProcFischi;BlockList;1;125;0;;-999999;13;19909;0;1;4175;24084;1;1;1;1;ProcFischi1;ListBlockFischi;58;1;2;0;2;5;Pr5_B;125;1;op;5;2;9;1;58;1;0;TrialProc;1934;672;Pr5_B;231;1501;1271;ListFischi1;0;;2;203;541847;8;15;1535;543382;383;1;1535;1;1330;306;1152;1;1
TMS_Ibrahim;39;2;"<?xml version=""1.0""?>\n<Clock xmlns:dt=""urn:schemas-microsoft-com:datatypes""><Description dt:dt=""string"">E-Prime Primary Realtime Clock</Description><StartTime><Timestamp dt:dt=""int"">0</Timestamp><DateUtc dt:dt=""string"">2022-09-06T09:55:03Z</DateUtc></StartTime><FrequencyChanges><FrequencyChange><Frequency dt:dt=""r8"">3312871</Frequency><Timestamp dt:dt=""r8"">27678923089</Timestamp><Current dt:dt=""r8"">0</Current><DateUtc dt:dt=""string"">2022-09-06T09:55:03Z</DateUtc></FrequencyChange></FrequencyChanges></Clock>\n";TMS_Ibrahim-39-2;7503;100561;1;;1909784658;2010242;2010242;09/06/2022;06/09/2022 09:55;11:55:03;2010147;0;;-999999;22;15808;0;1;1616;17424;1;1;1;2;1;0;1;BlockProcFischi;BlockList;1;125;0;;-999999;13;19909;0;1;4175;24084;1;1;1;1;ProcFischi1;ListBlockFischi;59;1;2;0;0;5;Pr3_B;150;1;op;5;2;7;1;59;1;0;TrialProc;2453;714;Pr3_B;11;1703;1714;ListFischi1;0;;2;203;549827;12;15;1731;551558;195;1;1731;1;1402;211;1536;1;1
TMS_Ibrahim;39;2;"<?xml version=""1.0""?>\n<Clock xmlns:dt=""urn:schemas-microsoft-com:datatypes""><Description dt:dt=""string"">E-Prime Primary Realtime Clock</Description><StartTime><Timestamp dt:dt=""int"">0</Timestamp><DateUtc dt:dt=""string"">2022-09-06T09:55:03Z</DateUtc></StartTime><FrequencyChanges><FrequencyChange><Frequency dt:dt=""r8"">3312871</Frequency><Timestamp dt:dt=""r8"">27678923089</Timestamp><Current dt:dt=""r8"">0</Current><DateUtc dt:dt=""string"">2022-09-06T09:55:03Z</DateUtc></FrequencyChange></FrequencyChanges></Clock>\n";TMS_Ibrahim-39-2;7503;100561;1;;1909784658;2010242;2010242;09/06/2022;06/09/2022 09:55;11:55:03;2010147;0;;-999999;22;15808;0;1;1616;17424;1;1;1;2;1;0;1;BlockProcFischi;BlockList;1;125;0;;-999999;13;19909;0;1;4175;24084;1;1;1;1;ProcFischi1;ListBlockFischi;60;1;1;0;0;5;Po4_B;100;4;ug;5;2;61;1;60;4;1;TrialProc;2751;1338;Po4_B;207;1504;1711;ListFischi1;0;;2;203;558774;8;15;1535;560309;288;1;1535;1;1059;202;1247;1;1
TMS_Ibrahim;39;2;"<?xml version=""1.0""?>\n<Clock xmlns:dt=""urn:schemas-microsoft-com:datatypes""><Description dt:dt=""string"">E-Prime Primary Realtime Clock</Description><StartTime><Timestamp dt:dt=""int"">0</Timestamp><DateUtc dt:dt=""string"">2022-09-06T09:55:03Z</DateUtc></StartTime><FrequencyChanges><FrequencyChange><Frequency dt:dt=""r8"">3312871</Frequency><Timestamp dt:dt=""r8"">27678923089</Timestamp><Current dt:dt=""r8"">0</Current><DateUtc dt:dt=""string"">2022-09-06T09:55:03Z</DateUtc></FrequencyChange></FrequencyChanges></Clock>\n";TMS_Ibrahim-39-2;7503;100561;1;;1909784658;2010242;2010242;09/06/2022;06/09/2022 09:55;11:55:03;2010147;0;;-999999;22;15808;0;1;1616;17424;1;1;1;2;1;0;1;BlockProcFischi;BlockList;1;125;0;;-999999;13;19909;0;1;4175;24084;1;1;1;1;ProcFischi1;ListBlockFischi;61;1;1;0;0;3;Po5_B;75;2;op;3;2;46;1;61;2;0;TrialProc;3280;986;Po5_B;27;1450;1478;ListFischi1;0;;2;203;567737;15;133;2156;569893;268;1;1484;1;1039;423;1216;1;1
TMS_Ibrahim;39;2;"<?xml version=""1.0""?>\n<Clock xmlns:dt=""urn:schemas-microsoft-com:datatypes""><Description dt:dt=""string"">E-Prime Primary Realtime Clock</Description><StartTime><Timestamp dt:dt=""int"">0</Timestamp><DateUtc dt:dt=""string"">2022-09-06T09:55:03Z</DateUtc></StartTime><FrequencyChanges><FrequencyChange><Frequency dt:dt=""r8"">3312871</Frequency><Timestamp dt:dt=""r8"">27678923089</Timestamp><Current dt:dt=""r8"">0</Current><DateUtc dt:dt=""string"">2022-09-06T09:55:03Z</DateUtc></FrequencyChange></FrequencyChanges></Clock>\n";TMS_Ibrahim-39-2;7503;100561;1;;1909784658;2010242;2010242;09/06/2022;06/09/2022 09:55;11:55:03;2010147;0;;-999999;22;15808;0;1;1616;17424;1;1;1;2;1;0;1;BlockProcFischi;BlockList;1;125;0;;-999999;13;19909;0;1;4175;24084;1;1;1;1;ProcFischi1;ListBlockFischi;62;1;2;0;0;3;Pr8_B;50;3;ug;3;2;21;1;62;3;1;TrialProc;2426;720;Pr8_B;70;1815;1746;ListFischi1;0;;2;203;575984;18;13;1845;577829;421;1;1845;1;1916;400;1424;1;1
TMS_Ibrahim;39;2;"<?xml version=""1.0""?>\n<Clock xmlns:dt=""urn:schemas-microsoft-com:datatypes""><Description dt:dt=""string"">E-Prime Primary Realtime Clock</Description><StartTime><Timestamp dt:dt=""int"">0</Timestamp><DateUtc dt:dt=""string"">2022-09-06T09:55:03Z</DateUtc></StartTime><FrequencyChanges><FrequencyChange><Frequency dt:dt=""r8"">3312871</Frequency><Timestamp dt:dt=""r8"">27678923089</Timestamp><Current dt:dt=""r8"">0</Current><DateUtc dt:dt=""string"">2022-09-06T09:55:03Z</DateUtc></FrequencyChange></FrequencyChanges></Clock>\n";TMS_Ibrahim-39-2;7503;100561;1;;1909784658;2010242;2010242;09/06/2022;06/09/2022 09:55;11:55:03;2010147;0;;-999999;22;15808;0;1;1616;17424;1;1;1;2;1;0;1;BlockProcFischi;BlockList;1;125;0;;-999999;13;19909;0;1;4175;24084;1;1;1;1;ProcFischi1;ListBlockFischi;63;1;2;0;0;3;Pr5_B;50;3;ug;3;2;20;1;63;3;1;TrialProc;1967;676;Pr5_B;181;1456;1274;ListFischi1;0;;2;203;585893;12;13;1488;587381;464;1;1488;1;2176;522;1024;1;1
TMS_Ibrahim;39;2;"<?xml version=""1.0""?>\n<Clock xmlns:dt=""urn:schemas-microsoft-com:datatypes""><Description dt:dt=""string"">E-Prime Primary Realtime Clock</Description><StartTime><Timestamp dt:dt=""int"">0</Timestamp><DateUtc dt:dt=""string"">2022-09-06T09:55:03Z</DateUtc></StartTime><FrequencyChanges><FrequencyChange><Frequency dt:dt=""r8"">3312871</Frequency><Timestamp dt:dt=""r8"">27678923089</Timestamp><Current dt:dt=""r8"">0</Current><DateUtc dt:dt=""string"">2022-09-06T09:55:03Z</DateUtc></FrequencyChange></FrequencyChanges></Clock>\n";TMS_Ibrahim-39-2;7503;100561;1;;1909784658;2010242;2010242;09/06/2022;06/09/2022 09:55;11:55:03;2010147;0;;-999999;22;15808;0;1;1616;17424;1;1;1;2;1;0;1;BlockProcFischi;BlockList;1;125;0;;-999999;13;19909;0;1;4175;24084;1;1;1;1;ProcFischi1;ListBlockFischi;64;1;1;0;0;3;Po3_B;50;2;op;3;2;44;1;64;2;0;TrialProc;2698;1309;Po3_B;98;1478;1576;ListFischi1;0;;2;203;594282;6;13;1498;595780;170;1;1498;1;1584;359;1328;1;1
TMS_Ibrahim;39;4;"<?xml version=""1.0""?>\n<Clock xmlns:dt=""urn:schemas-microsoft-com:datatypes""><Description dt:dt=""string"">E-Prime Primary Realtime Clock</Description><StartTime><Timestamp dt:dt=""int"">0</Timestamp><DateUtc dt:dt=""string"">2022-09-06T11:09:20Z</DateUtc></StartTime><FrequencyChanges><FrequencyChange><Frequency dt:dt=""r8"">3312871</Frequency><Timestamp dt:dt=""r8"">42443486985</Timestamp><Current dt:dt=""r8"">0</Current><DateUtc dt:dt=""string"">2022-09-06T11:09:20Z</DateUtc></FrequencyChange></FrequencyChanges></Clock>\n";TMS_Ibrahim-39-4;75029;100561;1;;-505537724;2010242;2010242;09/06/2022;06/09/2022 11:09;13:09:20;2010147;0;;-999999;21;20004;0;1;2597;22601;1;1;1;2;1;2;1;BlockProcFischi;BlockList;1;25;0;;-999999;33;26108;0;1;1022;27130;1;1;1;1;ProcFischi1;ListBlockFischi;1;1;1;0;0;5;Po3_B;250;4;ug;5;2;50;1;1;4;1;TrialProc;1347;1340;Po3_B;8;1600;1608;ListFischi1;0;;5;210;30362;15;15;1637;31999;533;1;1637;1;783;542;1104;1;1
TMS_Ibrahim;39;4;"<?xml version=""1.0""?>\n<Clock xmlns:dt=""urn:schemas-microsoft-com:datatypes""><Description dt:dt=""string"">E-Prime Primary Realtime Clock</Description><StartTime><Timestamp dt:dt=""int"">0</Timestamp><DateUtc dt:dt=""string"">2022-09-06T11:09:20Z</DateUtc></StartTime><FrequencyChanges><FrequencyChange><Frequency dt:dt=""r8"">3312871</Frequency><Timestamp dt:dt=""r8"">42443486985</Timestamp><Current dt:dt=""r8"">0</Current><DateUtc dt:dt=""string"">2022-09-06T11:09:20Z</DateUtc></FrequencyChange></FrequencyChanges></Clock>\n";TMS_Ibrahim-39-4;75029;100561;1;;-505537724;2010242;2010242;09/06/2022;06/09/2022 11:09;13:09:20;2010147;0;;-999999;21;20004;0;1;2597;22601;1;1;1;2;1;2;1;BlockProcFischi;BlockList;1;25;0;;-999999;33;26108;0;1;1022;27130;1;1;1;1;ProcFischi1;ListBlockFischi;2;1;2;0;0;5;Pr5_B;250;1;op;5;2;14;1;2;1;0;TrialProc;1386;684;Pr5_B;121;1404;1282;ListFischi1;0;;2;201;38023;17;155;2455;40478;424;1;1432;1;777;343;1008;1;1
TMS_Ibrahim;39;4;"<?xml version=""1.0""?>\n<Clock xmlns:dt=""urn:schemas-microsoft-com:datatypes""><Description dt:dt=""string"">E-Prime Primary Realtime Clock</Description><StartTime><Timestamp dt:dt=""int"">0</Timestamp><DateUtc dt:dt=""string"">2022-09-06T11:09:20Z</DateUtc></StartTime><FrequencyChanges><FrequencyChange><Frequency dt:dt=""r8"">3312871</Frequency><Timestamp dt:dt=""r8"">42443486985</Timestamp><Current dt:dt=""r8"">0</Current><DateUtc dt:dt=""string"">2022-09-06T11:09:20Z</DateUtc></FrequencyChange></FrequencyChanges></Clock>\n";TMS_Ibrahim-39-4;75029;100561;1;;-505537724;2010242;2010242;09/06/2022;06/09/2022 11:09;13:09:20;2010147;0;;-999999;21;20004;0;1;2597;22601;1;1;1;2;1;2;1;BlockProcFischi;BlockList;1;25;0;;-999999;33;26108;0;1;1022;27130;1;1;1;1;ProcFischi1;ListBlockFischi;3;1;1;0;0;5;Po2_B;225;4;ug;5;2;49;1;3;4;1;TrialProc;1703;1581;Po2_B;318;1488;1806;ListFischi1;0;;2;203;45161;10;15;1509;46670;357;1;1509;1;500;415;1152;1;1
TMS_Ibrahim;39;4;"<?xml version=""1.0""?>\n<Clock xmlns:dt=""urn:schemas-microsoft-com:datatypes""><Description dt:dt=""string"">E-Prime Primary Realtime Clock</Description><StartTime><Timestamp dt:dt=""int"">0</Timestamp><DateUtc dt:dt=""string"">2022-09-06T11:09:20Z</DateUtc></StartTime><FrequencyChanges><FrequencyChange><Frequency dt:dt=""r8"">3312871</Frequency><Timestamp dt:dt=""r8"">42443486985</Timestamp><Current dt:dt=""r8"">0</Current><DateUtc dt:dt=""string"">2022-09-06T11:09:20Z</DateUtc></FrequencyChange></FrequencyChanges></Clock>\n";TMS_Ibrahim-39-4;75029;100561;1;;-505537724;2010242;2010242;09/06/2022;06/09/2022 11:09;13:09:20;2010147;0;;-999999;21;20004;0;1;2597;22601;1;1;1;2;1;2;1;BlockProcFischi;BlockList;1;25;0;;-999999;33;26108;0;1;1022;27130;1;1;1;1;ProcFischi1;ListBlockFischi;4;1;1;0;1;5;Po4_B;225;4;ug;5;2;61;1;4;4;1;TrialProc;3203;1342;Po4_B;243;1472;1715;ListFischi1;0;;2;203;53383;12;155;3111;56494;407;1;1495;1;919;482;1088;1;1
TMS_Ibrahim;39;4;"<?xml version=""1.0""?>\n<Clock xmlns:dt=""urn:schemas-microsoft-com:datatypes""><Description dt:dt=""string"">E-Prime Primary Realtime Clock</Description><StartTime><Timestamp dt:dt=""int"">0</Timestamp><DateUtc dt:dt=""string"">2022-09-06T11:09:20Z</DateUtc></StartTime><FrequencyChanges><FrequencyChange><Frequency dt:dt=""r8"">3312871</Frequency><Timestamp dt:dt=""r8"">42443486985</Timestamp><Current dt:dt=""r8"">0</Current><DateUtc dt:dt=""string"">2022-09-06T11:09:20Z</DateUtc></FrequencyChange></FrequencyChanges></Clock>\n";TMS_Ibrahim-39-4;75029;100561;1;;-505537724;2010242;2010242;09/06/2022;06/09/2022 11:09;13:09:20;2010147;0;;-999999;21;20004;0;1;2597;22601;1;1;1;2;1;2;1;BlockProcFischi;BlockList;1;25;0;;-999999;33;26108;0;1;1022;27130;1;1;1;1;ProcFischi1;ListBlockFischi;5;1;2;1;0;5;Prmod_B;225;1;op;5;2;15;1;5;1;0;TrialProc;823;1313;Prmod_B;36;1681;1646;ListFischi1;0;;2;203;62088;10;15;1702;63790;390;1;1702;1;2857;408;1312;1;1
TMS_Ibrahim;39;4;"<?xml version=""1.0""?>\n<Clock xmlns:dt=""urn:schemas-microsoft-com:datatypes""><Description dt:dt=""string"">E-Prime Primary Realtime Clock</Description><StartTime><Timestamp dt:dt=""int"">0</Timestamp><DateUtc dt:dt=""string"">2022-09-06T11:09:20Z</DateUtc></StartTime><FrequencyChanges><FrequencyChange><Frequency dt:dt=""r8"">3312871</Frequency><Timestamp dt:dt=""r8"">42443486985</Timestamp><Current dt:dt=""r8"">0</Current><DateUtc dt:dt=""string"">2022-09-06T11:09:20Z</DateUtc></FrequencyChange></FrequencyChanges></Clock>\n";TMS_Ibrahim-39-4;75029;100561;1;;-505537724;2010242;2010242;09/06/2022;06/09/2022 11:09;13:09:20;2010147;0;;-999999;21;20004;0;1;2597;22601;1;1;1;2;1;2;1;BlockProcFischi;BlockList;1;25;0;;-999999;33;26108;0;1;1022;27130;1;1;1;1;ProcFischi1;ListBlockFischi;6;1;2;0;0;5;Pr8_B;200;1;op;5;2;5;1;6;1;0;TrialProc;1473;719;Pr8_B;3;1749;1746;ListFischi1;0;;3;201;69505;17;15;1773;71278;429;1;1773;1;1271;250;1344;1;1
TMS_Ibrahim;39;4;"<?xml version=""1.0""?>\n<Clock xmlns:dt=""urn:schemas-microsoft-com:datatypes""><Description dt:dt=""string"">E-Prime Primary Realtime Clock</Description><StartTime><Timestamp dt:dt=""int"">0</Timestamp><DateUtc dt:dt=""string"">2022-09-06T11:09:20Z</DateUtc></StartTime><FrequencyChanges><FrequencyChange><Frequency dt:dt=""r8"">3312871</Frequency><Timestamp dt:dt=""r8"">42443486985</Timestamp><Current dt:dt=""r8"">0</Current><DateUtc dt:dt=""string"">2022-09-06T11:09:20Z</DateUtc></FrequencyChange></FrequencyChanges></Clock>\n";TMS_Ibrahim-39-4;75029;100561;1;;-505537724;2010242;2010242;09/06/2022;06/09/2022 11:09;13:09:20;2010147;0;;-999999;21;20004;0;1;2597;22601;1;1;1;2;1;2;1;BlockProcFischi;BlockList;1;25;0;;-999999;33;26108;0;1;1022;27130;1;1;1;1;ProcFischi1;ListBlockFischi;7;1;1;1;1;5;Pomod_B;225;4;ug;5;2;63;1;7;4;1;TrialProc;895;1312;Pomod_B;110;1781;1672;ListFischi1;0;;2;203;77137;8;15;1804;78941;332;1;1804;1;836;348;1472;1;1
TMS_Ibrahim;39;4;"<?xml version=""1.0""?>\n<Clock xmlns:dt=""urn:schemas-microsoft-com:datatypes""><Description dt:dt=""string"">E-Prime Primary Realtime Clock</Description><StartTime><Timestamp dt:dt=""int"">0</Timestamp><DateUtc dt:dt=""string"">2022-09-06T11:09:20Z</DateUtc></StartTime><FrequencyChanges><FrequencyChange><Frequency dt:dt=""r8"">3312871</Frequency><Timestamp dt:dt=""r8"">42443486985</Timestamp><Current dt:dt=""r8"">0</Current><DateUtc dt:dt=""string"">2022-09-06T11:09:20Z</DateUtc></FrequencyChange></FrequencyChanges></Clock>\n";TMS_Ibrahim-39-4;75029;100561;1;;-505537724;2010242;2010242;09/06/2022;06/09/2022 11:09;13:09:20;2010147;0;;-999999;21;20004;0;1;2597;22601;1;1;1;2;1;2;1;BlockProcFischi;BlockList;1;25;0;;-999999;33;26108;0;1;1022;27130;1;1;1;1;ProcFischi1;ListBlockFischi;8;1;2;0;0;3;Pr5_B;250;3;ug;3;2;20;1;8;3;1;TrialProc;1610;682;Pr5_B;150;1433;1282;ListFischi1;0;;2;203;84391;18;13;1462;85853;262;1;1462;1;890;591;1200;1;1
TMS_Ibrahim;39;4;"<?xml version=""1.0""?>\n<Clock xmlns:dt=""urn:schemas-microsoft-com:datatypes""><Description dt:dt=""string"">E-Prime Primary Realtime Clock</Description><StartTime><Timestamp dt:dt=""int"">0</Timestamp><DateUtc dt:dt=""string"">2022-09-06T11:09:20Z</DateUtc></StartTime><FrequencyChanges><FrequencyChange><Frequency dt:dt=""r8"">3312871</Frequency><Timestamp dt:dt=""r8"">42443486985</Timestamp><Current dt:dt=""r8"">0</Current><DateUtc dt:dt=""string"">2022-09-06T11:09:20Z</DateUtc></FrequencyChange></FrequencyChanges></Clock>\n";TMS_Ibrahim-39-4;75029;100561;1;;-505537724;2010242;2010242;09/06/2022;06/09/2022 11:09;13:09:20;2010147;0;;-999999;21;20004;0;1;2597;22601;1;1;1;2;1;2;1;BlockProcFischi;BlockList;1;25;0;;-999999;33;26108;0;1;1022;27130;1;1;1;1;ProcFischi1;ListBlockFischi;9;1;1;0;0;3;Po4_B;250;2;op;3;2;35;1;9;2;0;TrialProc;1319;1343;Po4_B;207;1510;1717;ListFischi1;0;;3;201;91939;14;13;1530;93469;378;1;1530;1;662;387;1152;1;1
TMS_Ibrahim;39;4;"<?xml version=""1.0""?>\n<Clock xmlns:dt=""urn:schemas-microsoft-com:datatypes""><Description dt:dt=""string"">E-Prime Primary Realtime Clock</Description><StartTime><Timestamp dt:dt=""int"">0</Timestamp><DateUtc dt:dt=""string"">2022-09-06T11:09:20Z</DateUtc></StartTime><FrequencyChanges><FrequencyChange><Frequency dt:dt=""r8"">3312871</Frequency><Timestamp dt:dt=""r8"">42443486985</Timestamp><Current dt:dt=""r8"">0</Current><DateUtc dt:dt=""string"">2022-09-06T11:09:20Z</DateUtc></FrequencyChange></FrequencyChanges></Clock>\n";TMS_Ibrahim-39-4;75029;100561;1;;-505537724;2010242;2010242;09/06/2022;06/09/2022 11:09;13:09:20;2010147;0;;-999999;21;20004;0;1;2597;22601;1;1;1;2;1;2;1;BlockProcFischi;BlockList;1;25;0;;-999999;33;26108;0;1;1022;27130;1;1;1;1;ProcFischi1;ListBlockFischi;10;1;2;0;0;3;Pr5_B;225;3;ug;3;2;30;1;10;3;1;TrialProc;1359;676;Pr5_B;197;1471;1275;ListFischi1;0;;2;203;100245;11;13;1496;101741;376;1;1496;1;856;292;1120;1;1
TMS_Ibrahim;39;4;"<?xml version=""1.0""?>\n<Clock xmlns:dt=""urn:schemas-microsoft-com:datatypes""><Description dt:dt=""string"">E-Prime Primary Realtime Clock</Description><StartTime><Timestamp dt:dt=""int"">0</Timestamp><DateUtc dt:dt=""string"">2022-09-06T11:09:20Z</DateUtc></StartTime><FrequencyChanges><FrequencyChange><Frequency dt:dt=""r8"">3312871</Frequency><Timestamp dt:dt=""r8"">42443486985</Timestamp><Current dt:dt=""r8"">0</Current><DateUtc dt:dt=""string"">2022-09-06T11:09:20Z</DateUtc></FrequencyChange></FrequencyChanges></Clock>\n";TMS_Ibrahim-39-4;75029;100561;1;;-505537724;2010242;2010242;09/06/2022;06/09/2022 11:09;13:09:20;2010147;0;;-999999;21;20004;0;1;2597;22601;1;1;1;2;1;2;1;BlockProcFischi;BlockList;1;25;0;;-999999;33;26108;0;1;1022;27130;1;1;1;1;ProcFischi1;ListBlockFischi;11;1;2;0;0;3;Pr3_B;200;3;ug;3;2;23;1;11;3;1;TrialProc;966;716;Pr3_B;99;1616;1716;ListFischi1;0;;3;201;107466;14;13;1650;109116;386;1;1650;1;731;265;1264;1;1
TMS_Ibrahim;39;4;"<?xml version=""1.0""?>\n<Clock xmlns:dt=""urn:schemas-microsoft-com:datatypes""><Description dt:dt=""string"">E-Prime Primary Realtime Clock</Description><StartTime><Timestamp dt:dt=""int"">0</Timestamp><DateUtc dt:dt=""string"">2022-09-06T11:09:20Z</DateUtc></StartTime><FrequencyChanges><FrequencyChange><Frequency dt:dt=""r8"">3312871</Frequency><Timestamp dt:dt=""r8"">42443486985</Timestamp><Current dt:dt=""r8"">0</Current><DateUtc dt:dt=""string"">2022-09-06T11:09:20Z</DateUtc></FrequencyChange></FrequencyChanges></Clock>\n";TMS_Ibrahim-39-4;75029;100561;1;;-505537724;2010242;2010242;09/06/2022;06/09/2022 11:09;13:09:20;2010147;0;;-999999;21;20004;0;1;2597;22601;1;1;1;2;1;2;1;BlockProcFischi;BlockList;1;25;0;;-999999;33;26108;0;1;1022;27130;1;1;1;1;ProcFischi1;ListBlockFischi;12;1;2;0;0;3;Pr4_B;175;3;ug;3;2;19;1;12;3;1;TrialProc;2333;674;Pr4_B;103;1351;1248;ListFischi1;0;;2;203;115719;11;133;2277;117996;325;1;1381;1;869;549;1056;1;1
TMS_Ibrahim;39;4;"<?xml version=""1.0""?>\n<Clock xmlns:dt=""urn:schemas-microsoft-com:datatypes""><Description dt:dt=""string"">E-Prime Primary Realtime Clock</Description><StartTime><Timestamp dt:dt=""int"">0</Timestamp><DateUtc dt:dt=""string"">2022-09-06T11:09:20Z</DateUtc></StartTime><FrequencyChanges><FrequencyChange><Frequency dt:dt=""r8"">3312871</Frequency><Timestamp dt:dt=""r8"">42443486985</Timestamp><Current dt:dt=""r8"">0</Current><DateUtc dt:dt=""string"">2022-09-06T11:09:20Z</DateUtc></FrequencyChange></FrequencyChanges></Clock>\n";TMS_Ibrahim-39-4;75029;100561;1;;-505537724;2010242;2010242;09/06/2022;06/09/2022 11:09;13:09:20;2010147;0;;-999999;21;20004;0;1;2597;22601;1;1;1;2;1;2;1;BlockProcFischi;BlockList;1;25;0;;-999999;33;26108;0;1;1022;27130;1;1;1;1;ProcFischi1;ListBlockFischi;13;1;2;1;0;5;Prmod_B;175;1;op;5;2;16;1;13;1;0;TrialProc;1587;1319;Prmod_B;161;1811;1650;ListFischi1;0;;2;201;122380;14;15;1840;124220;384;1;1840;1;710;358;1456;1;1
TMS_Ibrahim;39;4;"<?xml version=""1.0""?>\n<Clock xmlns:dt=""urn:schemas-microsoft-com:datatypes""><Description dt:dt=""string"">E-Prime Primary Realtime Clock</Description><StartTime><Timestamp dt:dt=""int"">0</Timestamp><DateUtc dt:dt=""string"">2022-09-06T11:09:20Z</DateUtc></StartTime><FrequencyChanges><FrequencyChange><Frequency dt:dt=""r8"">3312871</Frequency><Timestamp dt:dt=""r8"">42443486985</Timestamp><Current dt:dt=""r8"">0</Current><DateUtc dt:dt=""string"">2022-09-06T11:09:20Z</DateUtc></FrequencyChange></FrequencyChanges></Clock>\n";TMS_Ibrahim-39-4;75029;100561;1;;-505537724;2010242;2010242;09/06/2022;06/09/2022 11:09;13:09:20;2010147;0;;-999999;21;20004;0;1;2597;22601;1;1;1;2;1;2;1;BlockProcFischi;BlockList;1;25;0;;-999999;33;26108;0;1;1022;27130;1;1;1;1;ProcFischi1;ListBlockFischi;14;1;2;0;0;5;Pr2_B;175;1;op;5;2;6;1;14;1;0;TrialProc;1237;719;Pr2_B;62;1314;1251;ListFischi1;0;;2;203;129923;15;15;1337;131260;281;1;1337;1;1377;398;1056;1;1
TMS_Ibrahim;39;4;"<?xml version=""1.0""?>\n<Clock xmlns:dt=""urn:schemas-microsoft-com:datatypes""><Description dt:dt=""string"">E-Prime Primary Realtime Clock</Description><StartTime><Timestamp dt:dt=""int"">0</Timestamp><DateUtc dt:dt=""string"">2022-09-06T11:09:20Z</DateUtc></StartTime><FrequencyChanges><FrequencyChange><Frequency dt:dt=""r8"">3312871</Frequency><Timestamp dt:dt=""r8"">42443486985</Timestamp><Current dt:dt=""r8"">0</Current><DateUtc dt:dt=""string"">2022-09-06T11:09:20Z</DateUtc></FrequencyChange></FrequencyChanges></Clock>\n";TMS_Ibrahim-39-4;75029;100561;1;;-505537724;2010242;2010242;09/06/2022;06/09/2022 11:09;13:09:20;2010147;0;;-999999;21;20004;0;1;2597;22601;1;1;1;2;1;2;1;BlockProcFischi;BlockList;1;25;0;;-999999;33;26108;0;1;1022;27130;1;1;1;1;ProcFischi1;ListBlockFischi;15;1;2;0;0;5;Pr2_B;150;1;op;5;2;1;1;15;1;0;TrialProc;2686;713;Pr2_B;50;1297;1246;ListFischi1;0;;2;203;137739;9;15;1328;139067;256;1;1328;1;1130;233;1072;1;1
TMS_Ibrahim;39;4;"<?xml version=""1.0""?>\n<Clock xmlns:dt=""urn:schemas-microsoft-com:datatypes""><Description dt:dt=""string"">E-Prime Primary Realtime Clock</Description><StartTime><Timestamp dt:dt=""int"">0</Timestamp><DateUtc dt:dt=""string"">2022-09-06T11:09:20Z</DateUtc></StartTime><FrequencyChanges><FrequencyChange><Frequency dt:dt=""r8"">3312871</Frequency><Timestamp dt:dt=""r8"">42443486985</Timestamp><Current dt:dt=""r8"">0</Current><DateUtc dt:dt=""string"">2022-09-06T11:09:20Z</DateUtc></FrequencyChange></FrequencyChanges></Clock>\n";TMS_Ibrahim-39-4;75029;100561;1;;-505537724;2010242;2010242;09/06/2022;06/09/2022 11:09;13:09:20;2010147;0;;-999999;21;20004;0;1;2597;22601;1;1;1;2;1;2;1;BlockProcFischi;BlockList;1;25;0;;-999999;33;26108;0;1;1022;27130;1;1;1;1;ProcFischi1;ListBlockFischi;16;1;2;0;0;5;Pr4_B;125;1;op;5;2;8;1;16;1;0;TrialProc;1929;674;Pr4_B;46;1293;1246;ListFischi1;0;;2;201;145388;11;155;2335;147723;303;1;1327;1;1159;481;1024;1;1
TMS_Ibrahim;39;4;"<?xml version=""1.0""?>\n<Clock xmlns:dt=""urn:schemas-microsoft-com:datatypes""><Description dt:dt=""string"">E-Prime Primary Realtime Clock</Description><StartTime><Timestamp dt:dt=""int"">0</Timestamp><DateUtc dt:dt=""string"">2022-09-06T11:09:20Z</DateUtc></StartTime><FrequencyChanges><FrequencyChange><Frequency dt:dt=""r8"">3312871</Frequency><Timestamp dt:dt=""r8"">42443486985</Timestamp><Current dt:dt=""r8"">0</Current><DateUtc dt:dt=""string"">2022-09-06T11:09:20Z</DateUtc></FrequencyChange></FrequencyChanges></Clock>\n";TMS_Ibrahim-39-4;75029;100561;1;;-505537724;2010242;2010242;09/06/2022;06/09/2022 11:09;13:09:20;2010147;0;;-999999;21;20004;0;1;2597;22601;1;1;1;2;1;2;1;BlockProcFischi;BlockList;1;25;0;;-999999;33;26108;0;1;1022;27130;1;1;1;1;ProcFischi1;ListBlockFischi;17;1;2;0;0;5;Pr4_B;100;1;op;5;2;13;1;17;1;0;TrialProc;2882;672;Pr4_B;117;1361;1244;ListFischi1;0;;2;203;152627;9;15;1384;154011;264;1;1384;1;1153;209;1120;1;1
TMS_Ibrahim;39;4;"<?xml version=""1.0""?>\n<Clock xmlns:dt=""urn:schemas-microsoft-com:datatypes""><Description dt:dt=""string"">E-Prime Primary Realtime Clock</Description><StartTime><Timestamp dt:dt=""int"">0</Timestamp><DateUtc dt:dt=""string"">2022-09-06T11:09:20Z</DateUtc></StartTime><FrequencyChanges><FrequencyChange><Frequency dt:dt=""r8"">3312871</Frequency><Timestamp dt:dt=""r8"">42443486985</Timestamp><Current dt:dt=""r8"">0</Current><DateUtc dt:dt=""string"">2022-09-06T11:09:20Z</DateUtc></FrequencyChange></FrequencyChanges></Clock>\n";TMS_Ibrahim-39-4;75029;100561;1;;-505537724;2010242;2010242;09/06/2022;06/09/2022 11:09;13:09:20;2010147;0;;-999999;21;20004;0;1;2597;22601;1;1;1;2;1;2;1;BlockProcFischi;BlockList;1;25;0;;-999999;33;26108;0;1;1022;27130;1;1;1;1;ProcFischi1;ListBlockFischi;18;1;1;0;0;3;Po5_B;225;2;op;3;2;36;1;18;2;0;TrialProc;2914;979;Po5_B;37;1436;1473;ListFischi1;0;;2;203;160691;8;13;1464;162155;424;1;1464;1;858;319;1040;1;1
TMS_Ibrahim;39;4;"<?xml version=""1.0""?>\n<Clock xmlns:dt=""urn:schemas-microsoft-com:datatypes""><Description dt:dt=""string"">E-Prime Primary Realtime Clock</Description><StartTime><Timestamp dt:dt=""int"">0</Timestamp><DateUtc dt:dt=""string"">2022-09-06T11:09:20Z</DateUtc></StartTime><FrequencyChanges><FrequencyChange><Frequency dt:dt=""r8"">3312871</Frequency><Timestamp dt:dt=""r8"">42443486985</Timestamp><Current dt:dt=""r8"">0</Current><DateUtc dt:dt=""string"">2022-09-06T11:09:20Z</DateUtc></FrequencyChange></FrequencyChanges></Clock>\n";TMS_Ibrahim-39-4;75029;100561;1;;-505537724;2010242;2010242;09/06/2022;06/09/2022 11:09;13:09:20;2010147;0;;-999999;21;20004;0;1;2597;22601;1;1;1;2;1;2;1;BlockProcFischi;BlockList;1;25;0;;-999999;33;26108;0;1;1022;27130;1;1;1;1;ProcFischi1;ListBlockFischi;19;1;1;0;0;3;Po2_B;200;2;op;3;2;33;1;19;2;0;TrialProc;3364;1579;Po2_B;126;1680;1805;ListFischi1;0;;2;203;168821;9;13;1701;170522;357;1;1701;1;861;478;1344;1;1
TMS_Ibrahim;39;4;"<?xml version=""1.0""?>\n<Clock xmlns:dt=""urn:schemas-microsoft-com:datatypes""><Description dt:dt=""string"">E-Prime Primary Realtime Clock</Description><StartTime><Timestamp dt:dt=""int"">0</Timestamp><DateUtc dt:dt=""string"">2022-09-06T11:09:20Z</DateUtc></StartTime><FrequencyChanges><FrequencyChange><Frequency dt:dt=""r8"">3312871</Frequency><Timestamp dt:dt=""r8"">42443486985</Timestamp><Current dt:dt=""r8"">0</Current><DateUtc dt:dt=""string"">2022-09-06T11:09:20Z</DateUtc></FrequencyChange></FrequencyChanges></Clock>\n";TMS_Ibrahim-39-4;75029;100561;1;;-505537724;2010242;2010242;09/06/2022;06/09/2022 11:09;13:09:20;2010147;0;;-999999;21;20004;0;1;2597;22601;1;1;1;2;1;2;1;BlockProcFischi;BlockList;1;25;0;;-999999;33;26108;0;1;1022;27130;1;1;1;1;ProcFischi1;ListBlockFischi;20;1;2;0;0;5;Pr4_B;100;1;op;5;2;3;1;20;1;0;TrialProc;1157;672;Pr4_B;44;1289;1244;ListFischi1;0;;2;203;177378;8;15;1320;178698;296;1;1320;1;829;310;1024;1;1
TMS_Ibrahim;39;4;"<?xml version=""1.0""?>\n<Clock xmlns:dt=""urn:schemas-microsoft-com:datatypes""><Description dt:dt=""string"">E-Prime Primary Realtime Clock</Description><StartTime><Timestamp dt:dt=""int"">0</Timestamp><DateUtc dt:dt=""string"">2022-09-06T11:09:20Z</DateUtc></StartTime><FrequencyChanges><FrequencyChange><Frequency dt:dt=""r8"">3312871</Frequency><Timestamp dt:dt=""r8"">42443486985</Timestamp><Current dt:dt=""r8"">0</Current><DateUtc dt:dt=""string"">2022-09-06T11:09:20Z</DateUtc></FrequencyChange></FrequencyChanges></Clock>\n";TMS_Ibrahim-39-4;75029;100561;1;;-505537724;2010242;2010242;09/06/2022;06/09/2022 11:09;13:09:20;2010147;0;;-999999;21;20004;0;1;2597;22601;1;1;1;2;1;2;1;BlockProcFischi;BlockList;1;25;0;;-999999;33;26108;0;1;1022;27130;1;1;1;1;ProcFischi1;ListBlockFischi;21;1;1;0;0;3;Po2_B;175;2;op;3;2;38;1;21;2;0;TrialProc;1666;1587;Po2_B;309;1504;1813;ListFischi1;0;;2;201;184915;15;133;1815;186730;391;1;1527;1;435;367;1136;1;1
TMS_Ibrahim;39;4;"<?xml version=""1.0""?>\n<Clock xmlns:dt=""urn:schemas-microsoft-com:datatypes""><Description dt:dt=""string"">E-Prime Primary Realtime Clock</Description><StartTime><Timestamp dt:dt=""int"">0</Timestamp><DateUtc dt:dt=""string"">2022-09-06T11:09:20Z</DateUtc></StartTime><FrequencyChanges><FrequencyChange><Frequency dt:dt=""r8"">3312871</Frequency><Timestamp dt:dt=""r8"">42443486985</Timestamp><Current dt:dt=""r8"">0</Current><DateUtc dt:dt=""string"">2022-09-06T11:09:20Z</DateUtc></FrequencyChange></FrequencyChanges></Clock>\n";TMS_Ibrahim-39-4;75029;100561;1;;-505537724;2010242;2010242;09/06/2022;06/09/2022 11:09;13:09:20;2010147;0;;-999999;21;20004;0;1;2597;22601;1;1;1;2;1;2;1;BlockProcFischi;BlockList;1;25;0;;-999999;33;26108;0;1;1022;27130;1;1;1;1;ProcFischi1;ListBlockFischi;22;1;1;0;1;3;Po2_B;175;2;op;3;2;43;1;22;2;0;TrialProc;1782;1578;Po2_B;127;1678;1804;ListFischi1;0;;2;203;193652;8;13;1702;195354;358;1;1702;1;299;452;1344;1;1
TMS_Ibrahim;39;4;"<?xml version=""1.0""?>\n<Clock xmlns:dt=""urn:schemas-microsoft-com:datatypes""><Description dt:dt=""string"">E-Prime Primary Realtime Clock</Description><StartTime><Timestamp dt:dt=""int"">0</Timestamp><DateUtc dt:dt=""string"">2022-09-06T11:09:20Z</DateUtc></StartTime><FrequencyChanges><FrequencyChange><Frequency dt:dt=""r8"">3312871</Frequency><Timestamp dt:dt=""r8"">42443486985</Timestamp><Current dt:dt=""r8"">0</Current><DateUtc dt:dt=""string"">2022-09-06T11:09:20Z</DateUtc></FrequencyChange></FrequencyChanges></Clock>\n";TMS_Ibrahim-39-4;75029;100561;1;;-505537724;2010242;2010242;09/06/2022;06/09/2022 11:09;13:09:20;2010147;0;;-999999;21;20004;0;1;2597;22601;1;1;1;2;1;2;1;BlockProcFischi;BlockList;1;25;0;;-999999;33;26108;0;1;1022;27130;1;1;1;1;ProcFischi1;ListBlockFischi;23;1;1;0;0;3;Po5_B;150;2;op;3;2;41;1;23;2;0;TrialProc;1670;976;Po5_B;92;1378;1470;ListFischi1;0;;2;203;201771;6;13;1406;203177;350;1;1406;1;1005;385;1056;1;1
TMS_Ibrahim;39;4;"<?xml version=""1.0""?>\n<Clock xmlns:dt=""urn:schemas-microsoft-com:datatypes""><Description dt:dt=""string"">E-Prime Primary Realtime Clock</Description><StartTime><Timestamp dt:dt=""int"">0</Timestamp><DateUtc dt:dt=""string"">2022-09-06T11:09:20Z</DateUtc></StartTime><FrequencyChanges><FrequencyChange><Frequency dt:dt=""r8"">3312871</Frequency><Timestamp dt:dt=""r8"">42443486985</Timestamp><Current dt:dt=""r8"">0</Current><DateUtc dt:dt=""string"">2022-09-06T11:09:20Z</DateUtc></FrequencyChange></FrequencyChanges></Clock>\n";TMS_Ibrahim-39-4;75029;100561;1;;-505537724;2010242;2010242;09/06/2022;06/09/2022 11:09;13:09:20;2010147;0;;-999999;21;20004;0;1;2597;22601;1;1;1;2;1;2;1;BlockProcFischi;BlockList;1;25;0;;-999999;33;26108;0;1;1022;27130;1;1;1;1;ProcFischi1;ListBlockFischi;24;1;2;0;0;5;Pr5_B;75;1;op;5;2;4;1;24;1;0;TrialProc;2817;671;Pr5_B;32;1304;1271;ListFischi1;0;;2;203;210365;8;15;1324;211689;317;1;1324;1;790;293;1007;1;1
TMS_Ibrahim;39;4;"<?xml version=""1.0""?>\n<Clock xmlns:dt=""urn:schemas-microsoft-com:datatypes""><Description dt:dt=""string"">E-Prime Primary Realtime Clock</Description><StartTime><Timestamp dt:dt=""int"">0</Timestamp><DateUtc dt:dt=""string"">2022-09-06T11:09:20Z</DateUtc></StartTime><FrequencyChanges><FrequencyChange><Frequency dt:dt=""r8"">3312871</Frequency><Timestamp dt:dt=""r8"">42443486985</Timestamp><Current dt:dt=""r8"">0</Current><DateUtc dt:dt=""string"">2022-09-06T11:09:20Z</DateUtc></FrequencyChange></FrequencyChanges></Clock>\n";TMS_Ibrahim-39-4;75029;100561;1;;-505537724;2010242;2010242;09/06/2022;06/09/2022 11:09;13:09:20;2010147;0;;-999999;21;20004;0;1;2597;22601;1;1;1;2;1;2;1;BlockProcFischi;BlockList;1;25;0;;-999999;33;26108;0;1;1022;27130;1;1;1;1;ProcFischi1;ListBlockFischi;25;1;1;0;0;5;Po8_B;200;4;ug;5;2;53;1;25;4;1;TrialProc;1464;1244;Po8_B;6;1572;1578;ListFischi1;0;;2;203;218629;8;15;1604;220233;308;1;1604;1;667;403;1296;1;1
TMS_Ibrahim;39;4;"<?xml version=""1.0""?>\n<Clock xmlns:dt=""urn:schemas-microsoft-com:datatypes""><Description dt:dt=""string"">E-Prime Primary Realtime Clock</Description><StartTime><Timestamp dt:dt=""int"">0</Timestamp><DateUtc dt:dt=""string"">2022-09-06T11:09:20Z</DateUtc></StartTime><FrequencyChanges><FrequencyChange><Frequency dt:dt=""r8"">3312871</Frequency><Timestamp dt:dt=""r8"">42443486985</Timestamp><Current dt:dt=""r8"">0</Current><DateUtc dt:dt=""string"">2022-09-06T11:09:20Z</DateUtc></FrequencyChange></FrequencyChanges></Clock>\n";TMS_Ibrahim-39-4;75029;100561;1;;-505537724;2010242;2010242;09/06/2022;06/09/2022 11:09;13:09:20;2010147;0;;-999999;21;20004;0;1;2597;22601;1;1;1;2;1;2;1;BlockProcFischi;BlockList;1;25;0;;-999999;33;26108;0;1;1022;27130;1;1;1;1;ProcFischi1;ListBlockFischi;26;1;2;0;0;3;Pr4_B;150;3;ug;3;2;29;1;26;3;1;TrialProc;2897;671;Pr4_B;47;1290;1244;ListFischi1;0;;2;203;226679;8;133;1585;228264;290;1;1313;1;690;574;1023;1;1
TMS_Ibrahim;39;4;"<?xml version=""1.0""?>\n<Clock xmlns:dt=""urn:schemas-microsoft-com:datatypes""><Description dt:dt=""string"">E-Prime Primary Realtime Clock</Description><StartTime><Timestamp dt:dt=""int"">0</Timestamp><DateUtc dt:dt=""string"">2022-09-06T11:09:20Z</DateUtc></StartTime><FrequencyChanges><FrequencyChange><Frequency dt:dt=""r8"">3312871</Frequency><Timestamp dt:dt=""r8"">42443486985</Timestamp><Current dt:dt=""r8"">0</Current><DateUtc dt:dt=""string"">2022-09-06T11:09:20Z</DateUtc></FrequencyChange></FrequencyChanges></Clock>\n";TMS_Ibrahim-39-4;75029;100561;1;;-505537724;2010242;2010242;09/06/2022;06/09/2022 11:09;13:09:20;2010147;0;;-999999;21;20004;0;1;2597;22601;1;1;1;2;1;2;1;BlockProcFischi;BlockList;1;25;0;;-999999;33;26108;0;1;1022;27130;1;1;1;1;ProcFischi1;ListBlockFischi;27;1;2;0;0;5;Pr3_B;50;1;op;5;2;2;1;27;1;0;TrialProc;1894;717;Pr3_B;155;1562;1717;ListFischi1;0;;3;201;234070;14;155;1730;235800;258;1;1586;1;261;277;1328;1;1
TMS_Ibrahim;39;4;"<?xml version=""1.0""?>\n<Clock xmlns:dt=""urn:schemas-microsoft-com:datatypes""><Description dt:dt=""string"">E-Prime Primary Realtime Clock</Description><StartTime><Timestamp dt:dt=""int"">0</Timestamp><DateUtc dt:dt=""string"">2022-09-06T11:09:20Z</DateUtc></StartTime><FrequencyChanges><FrequencyChange><Frequency dt:dt=""r8"">3312871</Frequency><Timestamp dt:dt=""r8"">42443486985</Timestamp><Current dt:dt=""r8"">0</Current><DateUtc dt:dt=""string"">2022-09-06T11:09:20Z</DateUtc></FrequencyChange></FrequencyChanges></Clock>\n";TMS_Ibrahim-39-4;75029;100561;1;;-505537724;2010242;2010242;09/06/2022;06/09/2022 11:09;13:09:20;2010147;0;;-999999;21;20004;0;1;2597;22601;1;1;1;2;1;2;1;BlockProcFischi;BlockList;1;25;0;;-999999;33;26108;0;1;1022;27130;1;1;1;1;ProcFischi1;ListBlockFischi;28;1;1;0;0;3;Po3_B;125;2;op;3;2;44;1;28;2;0;TrialProc;3187;1317;Po3_B;150;1434;1584;ListFischi1;0;;2;203;242466;15;133;2006;244472;70;1;1462;1;961;482;1392;1;1
TMS_Ibrahim;39;4;"<?xml version=""1.0""?>\n<Clock xmlns:dt=""urn:schemas-microsoft-com:datatypes""><Description dt:dt=""string"">E-Prime Primary Realtime Clock</Description><StartTime><Timestamp dt:dt=""int"">0</Timestamp><DateUtc dt:dt=""string"">2022-09-06T11:09:20Z</DateUtc></StartTime><FrequencyChanges><FrequencyChange><Frequency dt:dt=""r8"">3312871</Frequency><Timestamp dt:dt=""r8"">42443486985</Timestamp><Current dt:dt=""r8"">0</Current><DateUtc dt:dt=""string"">2022-09-06T11:09:20Z</DateUtc></FrequencyChange></FrequencyChanges></Clock>\n";TMS_Ibrahim-39-4;75029;100561;1;;-505537724;2010242;2010242;09/06/2022;06/09/2022 11:09;13:09:20;2010147;0;;-999999;21;20004;0;1;2597;22601;1;1;1;2;1;2;1;BlockProcFischi;BlockList;1;25;0;;-999999;33;26108;0;1;1022;27130;1;1;1;1;ProcFischi1;ListBlockFischi;29;1;1;1;0;3;Pomod_B;125;2;op;3;2;48;1;29;2;0;TrialProc;2955;1312;Pomod_B;113;1783;1671;ListFischi1;0;;2;203;252055;9;133;2241;254296;308;1;1809;1;1566;528;1501;1;1
TMS_Ibrahim;39;4;"<?xml version=""1.0""?>\n<Clock xmlns:dt=""urn:schemas-microsoft-com:datatypes""><Description dt:dt=""string"">E-Prime Primary Realtime Clock</Description><StartTime><Timestamp dt:dt=""int"">0</Timestamp><DateUtc dt:dt=""string"">2022-09-06T11:09:20Z</DateUtc></StartTime><FrequencyChanges><FrequencyChange><Frequency dt:dt=""r8"">3312871</Frequency><Timestamp dt:dt=""r8"">42443486985</Timestamp><Current dt:dt=""r8"">0</Current><DateUtc dt:dt=""string"">2022-09-06T11:09:20Z</DateUtc></FrequencyChange></FrequencyChanges></Clock>\n";TMS_Ibrahim-39-4;75029;100561;1;;-505537724;2010242;2010242;09/06/2022;06/09/2022 11:09;13:09:20;2010147;0;;-999999;21;20004;0;1;2597;22601;1;1;1;2;1;2;1;BlockProcFischi;BlockList;1;25;0;;-999999;33;26108;0;1;1022;27130;1;1;1;1;ProcFischi1;ListBlockFischi;30;0;1;0;0;3;Po4_B;;2;op;0;2;45;1;30;2;0;TrialProc;1625;1345;Po4_B;173;1546;1718;ListFischi1;0;;2;203;261152;15;3;1575;262727;1;1;1;1;1348;220;0;0;0
TMS_Ibrahim;39;4;"<?xml version=""1.0""?>\n<Clock xmlns:dt=""urn:schemas-microsoft-com:datatypes""><Description dt:dt=""string"">E-Prime Primary Realtime Clock</Description><StartTime><Timestamp dt:dt=""int"">0</Timestamp><DateUtc dt:dt=""string"">2022-09-06T11:09:20Z</DateUtc></StartTime><FrequencyChanges><FrequencyChange><Frequency dt:dt=""r8"">3312871</Frequency><Timestamp dt:dt=""r8"">42443486985</Timestamp><Current dt:dt=""r8"">0</Current><DateUtc dt:dt=""string"">2022-09-06T11:09:20Z</DateUtc></FrequencyChange></FrequencyChanges></Clock>\n";TMS_Ibrahim-39-4;75029;100561;1;;-505537724;2010242;2010242;09/06/2022;06/09/2022 11:09;13:09:20;2010147;0;;-999999;21;20004;0;1;2597;22601;1;1;1;2;1;2;1;BlockProcFischi;BlockList;1;25;0;;-999999;33;26108;0;1;1022;27130;1;1;1;1;ProcFischi1;ListBlockFischi;31;1;2;0;0;3;Pr2_B;125;3;ug;3;2;17;1;31;3;1;TrialProc;1635;716;Pr2_B;215;1466;1251;ListFischi1;0;;2;203;270177;13;133;2678;272855;550;1;1494;1;1233;404;944;1;1
TMS_Ibrahim;39;4;"<?xml version=""1.0""?>\n<Clock xmlns:dt=""urn:schemas-microsoft-com:datatypes""><Description dt:dt=""string"">E-Prime Primary Realtime Clock</Description><StartTime><Timestamp dt:dt=""int"">0</Timestamp><DateUtc dt:dt=""string"">2022-09-06T11:09:20Z</DateUtc></StartTime><FrequencyChanges><FrequencyChange><Frequency dt:dt=""r8"">3312871</Frequency><Timestamp dt:dt=""r8"">42443486985</Timestamp><Current dt:dt=""r8"">0</Current><DateUtc dt:dt=""string"">2022-09-06T11:09:20Z</DateUtc></FrequencyChange></FrequencyChanges></Clock>\n";TMS_Ibrahim-39-4;75029;100561;1;;-505537724;2010242;2010242;09/06/2022;06/09/2022 11:09;13:09:20;2010147;0;;-999999;21;20004;0;1;2597;22601;1;1;1;2;1;2;1;BlockProcFischi;BlockList;1;25;0;;-999999;33;26108;0;1;1022;27130;1;1;1;1;ProcFischi1;ListBlockFischi;32;1;1;0;0;3;Po8_B;125;2;op;3;2;37;1;32;2;0;TrialProc;2125;1249;Po8_B;70;1512;1582;ListFischi1;0;;3;201;277547;13;13;1548;279095;428;1;1548;1;985;437;1120;1;1
TMS_Ibrahim;39;4;"<?xml version=""1.0""?>\n<Clock xmlns:dt=""urn:schemas-microsoft-com:datatypes""><Description dt:dt=""string"">E-Prime Primary Realtime Clock</Description><StartTime><Timestamp dt:dt=""int"">0</Timestamp><DateUtc dt:dt=""string"">2022-09-06T11:09:20Z</DateUtc></StartTime><FrequencyChanges><FrequencyChange><Frequency dt:dt=""r8"">3312871</Frequency><Timestamp dt:dt=""r8"">42443486985</Timestamp><Current dt:dt=""r8"">0</Current><DateUtc dt:dt=""string"">2022-09-06T11:09:20Z</DateUtc></FrequencyChange></FrequencyChanges></Clock>\n";TMS_Ibrahim-39-4;75029;100561;1;;-505537724;2010242;2010242;09/06/2022;06/09/2022 11:09;13:09:20;2010147;0;;-999999;21;20004;0;1;2597;22601;1;1;1;2;1;2;1;BlockProcFischi;BlockList;1;25;0;;-999999;33;26108;0;1;1022;27130;1;1;1;1;ProcFischi1;ListBlockFischi;33;1;2;0;1;5;Pr3_B;50;1;op;5;2;7;1;33;1;0;TrialProc;1050;714;Pr3_B;107;1604;1712;ListFischi1;0;;2;203;285615;9;15;1640;287255;424;1;1640;1;1410;277;1216;1;1
TMS_Ibrahim;39;4;"<?xml version=""1.0""?>\n<Clock xmlns:dt=""urn:schemas-microsoft-com:datatypes""><Description dt:dt=""string"">E-Prime Primary Realtime Clock</Description><StartTime><Timestamp dt:dt=""int"">0</Timestamp><DateUtc dt:dt=""string"">2022-09-06T11:09:20Z</DateUtc></StartTime><FrequencyChanges><FrequencyChange><Frequency dt:dt=""r8"">3312871</Frequency><Timestamp dt:dt=""r8"">42443486985</Timestamp><Current dt:dt=""r8"">0</Current><DateUtc dt:dt=""string"">2022-09-06T11:09:20Z</DateUtc></FrequencyChange></FrequencyChanges></Clock>\n";TMS_Ibrahim-39-4;75029;100561;1;;-505537724;2010242;2010242;09/06/2022;06/09/2022 11:09;13:09:20;2010147;0;;-999999;21;20004;0;1;2597;22601;1;1;1;2;1;2;1;BlockProcFischi;BlockList;1;25;0;;-999999;33;26108;0;1;1022;27130;1;1;1;1;ProcFischi1;ListBlockFischi;34;1;2;0;1;3;Pr3_B;125;3;ug;3;2;28;1;34;3;1;TrialProc;1611;715;Pr3_B;29;1743;1714;ListFischi1;0;;3;201;293130;11;1333;2412;295542;413;1;1772;1;714;542;1359;1;1
TMS_Ibrahim;39;4;"<?xml version=""1.0""?>\n<Clock xmlns:dt=""urn:schemas-microsoft-com:datatypes""><Description dt:dt=""string"">E-Prime Primary Realtime Clock</Description><StartTime><Timestamp dt:dt=""int"">0</Timestamp><DateUtc dt:dt=""string"">2022-09-06T11:09:20Z</DateUtc></StartTime><FrequencyChanges><FrequencyChange><Frequency dt:dt=""r8"">3312871</Frequency><Timestamp dt:dt=""r8"">42443486985</Timestamp><Current dt:dt=""r8"">0</Current><DateUtc dt:dt=""string"">2022-09-06T11:09:20Z</DateUtc></FrequencyChange></FrequencyChanges></Clock>\n";TMS_Ibrahim-39-4;75029;100561;1;;-505537724;2010242;2010242;09/06/2022;06/09/2022 11:09;13:09:20;2010147;0;;-999999;21;20004;0;1;2597;22601;1;1;1;2;1;2;1;BlockProcFischi;BlockList;1;25;0;;-999999;33;26108;0;1;1022;27130;1;1;1;1;ProcFischi1;ListBlockFischi;35;1;1;0;0;5;Po3_B;175;4;ug;5;2;55;1;35;4;1;TrialProc;3398;1315;Po3_B;137;1444;1581;ListFischi1;0;;2;203;300859;12;15;1467;302326;107;1;1467;1;538;211;1360;1;1
TMS_Ibrahim;39;4;"<?xml version=""1.0""?>\n<Clock xmlns:dt=""urn:schemas-microsoft-com:datatypes""><Description dt:dt=""string"">E-Prime Primary Realtime Clock</Description><StartTime><Timestamp dt:dt=""int"">0</Timestamp><DateUtc dt:dt=""string"">2022-09-06T11:09:20Z</DateUtc></StartTime><FrequencyChanges><FrequencyChange><Frequency dt:dt=""r8"">3312871</Frequency><Timestamp dt:dt=""r8"">42443486985</Timestamp><Current dt:dt=""r8"">0</Current><DateUtc dt:dt=""string"">2022-09-06T11:09:20Z</DateUtc></FrequencyChange></FrequencyChanges></Clock>\n";TMS_Ibrahim-39-4;75029;100561;1;;-505537724;2010242;2010242;09/06/2022;06/09/2022 11:09;13:09:20;2010147;0;;-999999;21;20004;0;1;2597;22601;1;1;1;2;1;2;1;BlockProcFischi;BlockList;1;25;0;;-999999;33;26108;0;1;1022;27130;1;1;1;1;ProcFischi1;ListBlockFischi;36;1;1;0;0;5;Po5_B;150;4;ug;5;2;57;1;36;4;1;TrialProc;1210;980;Po5_B;20;1493;1473;ListFischi1;0;;2;203;309166;9;15;1528;310694;344;1;1528;1;725;569;1184;1;1
TMS_Ibrahim;39;4;"<?xml version=""1.0""?>\n<Clock xmlns:dt=""urn:schemas-microsoft-com:datatypes""><Description dt:dt=""string"">E-Prime Primary Realtime Clock</Description><StartTime><Timestamp dt:dt=""int"">0</Timestamp><DateUtc dt:dt=""string"">2022-09-06T11:09:20Z</DateUtc></StartTime><FrequencyChanges><FrequencyChange><Frequency dt:dt=""r8"">3312871</Frequency><Timestamp dt:dt=""r8"">42443486985</Timestamp><Current dt:dt=""r8"">0</Current><DateUtc dt:dt=""string"">2022-09-06T11:09:20Z</DateUtc></FrequencyChange></FrequencyChanges></Clock>\n";TMS_Ibrahim-39-4;75029;100561;1;;-505537724;2010242;2010242;09/06/2022;06/09/2022 11:09;13:09:20;2010147;0;;-999999;21;20004;0;1;2597;22601;1;1;1;2;1;2;1;BlockProcFischi;BlockList;1;25;0;;-999999;33;26108;0;1;1022;27130;1;1;1;1;ProcFischi1;ListBlockFischi;37;1;1;0;0;5;Po2_B;125;4;ug;5;2;59;1;37;4;1;TrialProc;2681;1580;Po2_B;198;1607;1805;ListFischi1;0;;2;203;317483;9;155;2170;319653;347;1;1643;1;561;203;1296;1;1
