ExperimentName;Subject;Session;Clock.Information;DataFile.Basename;Display.RefreshRate;ExperimentVersion;Group;Name;RandomSeed;RuntimeVersion;RuntimeVersionExpected;SessionDate;SessionStartDateTimeUtc;SessionTime;StudioVersion;SyncEprimeKinB1.ACC;SyncEprimeKinB1.CRESP;SyncEprimeKinB1.DurationError;SyncEprimeKinB1.OnsetDelay;SyncEprimeKinB1.OnsetTime;SyncEprimeKinB1.OnsetToOnsetTime;SyncEprimeKinB1.RESP;SyncEprimeKinB1.RT;SyncEprimeKinB1.RTTime;Block;BlockINT_0Fischi_1Suoni;BlockList;BlockList.Cycle;BlockList.Sample;ContatoreSuoni;NumSuono;Procedure[Block];Running[Block];Suonilist;SuonoFinSoglia;SyncEprimeKinFischi1.ACC;SyncEprimeKinFischi1.CRESP;SyncEprimeKinFischi1.DurationError;SyncEprimeKinFischi1.OnsetDelay;SyncEprimeKinFischi1.OnsetTime;SyncEprimeKinFischi1.OnsetToOnsetTime;SyncEprimeKinFischi1.RESP;SyncEprimeKinFischi1.RT;SyncEprimeKinFischi1.RTTime;Trial;ListBlockFischi;ListBlockFischi.Cycle;ListBlockFischi.Sample;Procedure[Trial];Running[Trial];SubTrial;AccSogg1;Avatar_Giu1_Su2;CatchTrial_CORR;ContatoreFinestraSoglia;CorrectResponse;File_Name;FinestraSoglia;IdcondEEG;Istruzione;KeySoggetto1;KeySoggetto2;ListFischi1;ListFischi1.Cycle;ListFischi1.Sample;NumeroSuono;OP_UG;Procedure[SubTrial];Resoconto.RT;RTChange;RTimage;RTNetto;RTSubj;RTTouch;Running[SubTrial];StartGo.ACC;StartGo.CRESP;StartGo.DurationError;StartGo.OnsetDelay;StartGo.OnsetTime;StartGo.OnsetToOnsetTime;StartGo.RESP;StartGo.RT;StartGo.RTTime;StartSoggetto1;StartSoggetto2;StopSoggetto1;StopSoggetto2;StopTrial.RT;tempo;TMSoggetto1;ValiditaTrial;Vincitore
TMS_Ibrahim;40;1;"<?xml version=""1.0""?>\n<Clock xmlns:dt=""urn:schemas-microsoft-com:datatypes""><Description dt:dt=""string"">E-Prime Primary Realtime Clock</Description><StartTime><Timestamp dt:dt=""int"">0</Timestamp><DateUtc dt:dt=""string"">2022-09-08T08:46:15Z</DateUtc></StartTime><FrequencyChanges><FrequencyChange><Frequency dt:dt=""r8"">3312851</Frequency><Timestamp dt:dt=""r8"">18561345371</Timestamp><Current dt:dt=""r8"">0</Current><DateUtc dt:dt=""string"">2022-09-08T08:46:15Z</DateUtc></FrequencyChange></FrequencyChanges></Clock>\n";TMS_Ibrahim-40-1;75028;100561;1;;1382130953;2010242;2010242;09/08/2022;08/09/2022 08:46;10:46:15;2010147;0;;-999999;46;41071;0;1;1441;42512;1;1;1;2;1;0;1;BlockProcFischi;BlockList;1;100;0;;-999999;32;43976;0;1;1708;45684;1;1;1;1;ProcFischi1;ListBlockFischi;1;1;2;0;0;5;Pr2_B;250;1;op;5;2;6;1;1;1;0;TrialProc;1530;738;Pr2_B;275;1547;1272;ListFischi1;0;;5;210;49360;24;15;1583;50943;431;1;1583;1;1166;489;1152;1;1
TMS_Ibrahim;40;1;"<?xml version=""1.0""?>\n<Clock xmlns:dt=""urn:schemas-microsoft-com:datatypes""><Description dt:dt=""string"">E-Prime Primary Realtime Clock</Description><StartTime><Timestamp dt:dt=""int"">0</Timestamp><DateUtc dt:dt=""string"">2022-09-08T08:46:15Z</DateUtc></StartTime><FrequencyChanges><FrequencyChange><Frequency dt:dt=""r8"">3312851</Frequency><Timestamp dt:dt=""r8"">18561345371</Timestamp><Current dt:dt=""r8"">0</Current><DateUtc dt:dt=""string"">2022-09-08T08:46:15Z</DateUtc></FrequencyChange></FrequencyChanges></Clock>\n";TMS_Ibrahim-40-1;75028;100561;1;;1382130953;2010242;2010242;09/08/2022;08/09/2022 08:46;10:46:15;2010147;0;;-999999;46;41071;0;1;1441;42512;1;1;1;2;1;0;1;BlockProcFischi;BlockList;1;100;0;;-999999;32;43976;0;1;1708;45684;1;1;1;1;ProcFischi1;ListBlockFischi;2;1;2;0;0;5;Pr2_B;250;1;op;5;2;11;1;2;1;0;TrialProc;1415;712;Pr2_B;37;1209;1246;ListFischi1;0;;1;201;56959;9;15;1232;58191;192;1;1232;1;889;566;1040;1;1
TMS_Ibrahim;40;1;"<?xml version=""1.0""?>\n<Clock xmlns:dt=""urn:schemas-microsoft-com:datatypes""><Description dt:dt=""string"">E-Prime Primary Realtime Clock</Description><StartTime><Timestamp dt:dt=""int"">0</Timestamp><DateUtc dt:dt=""string"">2022-09-08T08:46:15Z</DateUtc></StartTime><FrequencyChanges><FrequencyChange><Frequency dt:dt=""r8"">3312851</Frequency><Timestamp dt:dt=""r8"">18561345371</Timestamp><Current dt:dt=""r8"">0</Current><DateUtc dt:dt=""string"">2022-09-08T08:46:15Z</DateUtc></FrequencyChange></FrequencyChanges></Clock>\n";TMS_Ibrahim-40-1;75028;100561;1;;1382130953;2010242;2010242;09/08/2022;08/09/2022 08:46;10:46:15;2010147;0;;-999999;46;41071;0;1;1441;42512;1;1;1;2;1;0;1;BlockProcFischi;BlockList;1;100;0;;-999999;32;43976;0;1;1708;45684;1;1;1;1;ProcFischi1;ListBlockFischi;3;1;2;1;0;5;Prmod_B;225;1;op;5;2;16;1;3;1;0;TrialProc;1451;1319;Prmod_B;116;1769;1653;ListFischi1;0;;2;203;64509;16;15;1793;66302;390;1;1793;1;868;357;1403;1;1
TMS_Ibrahim;40;1;"<?xml version=""1.0""?>\n<Clock xmlns:dt=""urn:schemas-microsoft-com:datatypes""><Description dt:dt=""string"">E-Prime Primary Realtime Clock</Description><StartTime><Timestamp dt:dt=""int"">0</Timestamp><DateUtc dt:dt=""string"">2022-09-08T08:46:15Z</DateUtc></StartTime><FrequencyChanges><FrequencyChange><Frequency dt:dt=""r8"">3312851</Frequency><Timestamp dt:dt=""r8"">18561345371</Timestamp><Current dt:dt=""r8"">0</Current><DateUtc dt:dt=""string"">2022-09-08T08:46:15Z</DateUtc></FrequencyChange></FrequencyChanges></Clock>\n";TMS_Ibrahim-40-1;75028;100561;1;;1382130953;2010242;2010242;09/08/2022;08/09/2022 08:46;10:46:15;2010147;0;;-999999;46;41071;0;1;1441;42512;1;1;1;2;1;0;1;BlockProcFischi;BlockList;1;100;0;;-999999;32;43976;0;1;1708;45684;1;1;1;1;ProcFischi1;ListBlockFischi;4;1;2;0;0;3;Pr4_B;250;3;ug;3;2;24;1;4;3;1;TrialProc;1022;675;Pr4_B;227;1476;1248;ListFischi1;0;;2;201;71724;11;13;1506;73230;386;1;1506;1;499;565;1120;1;1
TMS_Ibrahim;40;1;"<?xml version=""1.0""?>\n<Clock xmlns:dt=""urn:schemas-microsoft-com:datatypes""><Description dt:dt=""string"">E-Prime Primary Realtime Clock</Description><StartTime><Timestamp dt:dt=""int"">0</Timestamp><DateUtc dt:dt=""string"">2022-09-08T08:46:15Z</DateUtc></StartTime><FrequencyChanges><FrequencyChange><Frequency dt:dt=""r8"">3312851</Frequency><Timestamp dt:dt=""r8"">18561345371</Timestamp><Current dt:dt=""r8"">0</Current><DateUtc dt:dt=""string"">2022-09-08T08:46:15Z</DateUtc></FrequencyChange></FrequencyChanges></Clock>\n";TMS_Ibrahim-40-1;75028;100561;1;;1382130953;2010242;2010242;09/08/2022;08/09/2022 08:46;10:46:15;2010147;0;;-999999;46;41071;0;1;1441;42512;1;1;1;2;1;0;1;BlockProcFischi;BlockList;1;100;0;;-999999;32;43976;0;1;1708;45684;1;1;1;1;ProcFischi1;ListBlockFischi;5;1;1;0;0;5;Po5_B;250;4;ug;5;2;52;1;5;4;1;TrialProc;1084;985;Po5_B;9;1469;1478;ListFischi1;0;;2;203;79185;14;15;1501;80686;381;1;1501;1;925;323;1120;1;1
TMS_Ibrahim;40;1;"<?xml version=""1.0""?>\n<Clock xmlns:dt=""urn:schemas-microsoft-com:datatypes""><Description dt:dt=""string"">E-Prime Primary Realtime Clock</Description><StartTime><Timestamp dt:dt=""int"">0</Timestamp><DateUtc dt:dt=""string"">2022-09-08T08:46:15Z</DateUtc></StartTime><FrequencyChanges><FrequencyChange><Frequency dt:dt=""r8"">3312851</Frequency><Timestamp dt:dt=""r8"">18561345371</Timestamp><Current dt:dt=""r8"">0</Current><DateUtc dt:dt=""string"">2022-09-08T08:46:15Z</DateUtc></FrequencyChange></FrequencyChanges></Clock>\n";TMS_Ibrahim-40-1;75028;100561;1;;1382130953;2010242;2010242;09/08/2022;08/09/2022 08:46;10:46:15;2010147;0;;-999999;46;41071;0;1;1441;42512;1;1;1;2;1;0;1;BlockProcFischi;BlockList;1;100;0;;-999999;32;43976;0;1;1708;45684;1;1;1;1;ProcFischi1;ListBlockFischi;6;1;1;0;0;5;Po2_B;225;4;ug;5;2;54;1;6;4;1;TrialProc;2219;1576;Po2_B;237;1565;1803;ListFischi1;0;;2;201;86525;5;15;1585;88110;273;1;1585;1;960;376;1312;1;1
TMS_Ibrahim;40;1;"<?xml version=""1.0""?>\n<Clock xmlns:dt=""urn:schemas-microsoft-com:datatypes""><Description dt:dt=""string"">E-Prime Primary Realtime Clock</Description><StartTime><Timestamp dt:dt=""int"">0</Timestamp><DateUtc dt:dt=""string"">2022-09-08T08:46:15Z</DateUtc></StartTime><FrequencyChanges><FrequencyChange><Frequency dt:dt=""r8"">3312851</Frequency><Timestamp dt:dt=""r8"">18561345371</Timestamp><Current dt:dt=""r8"">0</Current><DateUtc dt:dt=""string"">2022-09-08T08:46:15Z</DateUtc></FrequencyChange></FrequencyChanges></Clock>\n";TMS_Ibrahim-40-1;75028;100561;1;;1382130953;2010242;2010242;09/08/2022;08/09/2022 08:46;10:46:15;2010147;0;;-999999;46;41071;0;1;1441;42512;1;1;1;2;1;0;1;BlockProcFischi;BlockList;1;100;0;;-999999;32;43976;0;1;1708;45684;1;1;1;1;ProcFischi1;ListBlockFischi;7;0;1;0;0;3;Po3_B;;2;op;5;2;44;1;7;2;0;TrialProc;4892;1322;Po3_B;1;1586;1588;ListFischi1;0;;2;203;94242;18;15;1612;95854;444;1;1612;1;1195;246;1168;1;0
TMS_Ibrahim;40;1;"<?xml version=""1.0""?>\n<Clock xmlns:dt=""urn:schemas-microsoft-com:datatypes""><Description dt:dt=""string"">E-Prime Primary Realtime Clock</Description><StartTime><Timestamp dt:dt=""int"">0</Timestamp><DateUtc dt:dt=""string"">2022-09-08T08:46:15Z</DateUtc></StartTime><FrequencyChanges><FrequencyChange><Frequency dt:dt=""r8"">3312851</Frequency><Timestamp dt:dt=""r8"">18561345371</Timestamp><Current dt:dt=""r8"">0</Current><DateUtc dt:dt=""string"">2022-09-08T08:46:15Z</DateUtc></FrequencyChange></FrequencyChanges></Clock>\n";TMS_Ibrahim-40-1;75028;100561;1;;1382130953;2010242;2010242;09/08/2022;08/09/2022 08:46;10:46:15;2010147;0;;-999999;46;41071;0;1;1441;42512;1;1;1;2;1;0;1;BlockProcFischi;BlockList;1;100;0;;-999999;32;43976;0;1;1708;45684;1;1;1;1;ProcFischi1;ListBlockFischi;8;1;1;1;0;5;Pomod_B;225;4;ug;5;2;63;1;8;4;1;TrialProc;1645;1316;Pomod_B;58;1734;1675;ListFischi1;0;;2;203;103779;11;155;1866;105645;426;1;1754;1;776;515;1328;1;1
TMS_Ibrahim;40;1;"<?xml version=""1.0""?>\n<Clock xmlns:dt=""urn:schemas-microsoft-com:datatypes""><Description dt:dt=""string"">E-Prime Primary Realtime Clock</Description><StartTime><Timestamp dt:dt=""int"">0</Timestamp><DateUtc dt:dt=""string"">2022-09-08T08:46:15Z</DateUtc></StartTime><FrequencyChanges><FrequencyChange><Frequency dt:dt=""r8"">3312851</Frequency><Timestamp dt:dt=""r8"">18561345371</Timestamp><Current dt:dt=""r8"">0</Current><DateUtc dt:dt=""string"">2022-09-08T08:46:15Z</DateUtc></FrequencyChange></FrequencyChanges></Clock>\n";TMS_Ibrahim-40-1;75028;100561;1;;1382130953;2010242;2010242;09/08/2022;08/09/2022 08:46;10:46:15;2010147;0;;-999999;46;41071;0;1;1441;42512;1;1;1;2;1;0;1;BlockProcFischi;BlockList;1;100;0;;-999999;32;43976;0;1;1708;45684;1;1;1;1;ProcFischi1;ListBlockFischi;9;1;1;0;0;3;Po2_B;250;2;op;3;2;38;1;9;2;0;TrialProc;1621;1585;Po2_B;49;1763;1812;ListFischi1;0;;2;201;110720;14;13;1789;112509;399;1;1789;1;784;463;1390;1;1
TMS_Ibrahim;40;1;"<?xml version=""1.0""?>\n<Clock xmlns:dt=""urn:schemas-microsoft-com:datatypes""><Description dt:dt=""string"">E-Prime Primary Realtime Clock</Description><StartTime><Timestamp dt:dt=""int"">0</Timestamp><DateUtc dt:dt=""string"">2022-09-08T08:46:15Z</DateUtc></StartTime><FrequencyChanges><FrequencyChange><Frequency dt:dt=""r8"">3312851</Frequency><Timestamp dt:dt=""r8"">18561345371</Timestamp><Current dt:dt=""r8"">0</Current><DateUtc dt:dt=""string"">2022-09-08T08:46:15Z</DateUtc></FrequencyChange></FrequencyChanges></Clock>\n";TMS_Ibrahim-40-1;75028;100561;1;;1382130953;2010242;2010242;09/08/2022;08/09/2022 08:46;10:46:15;2010147;0;;-999999;46;41071;0;1;1441;42512;1;1;1;2;1;0;1;BlockProcFischi;BlockList;1;100;0;;-999999;32;43976;0;1;1708;45684;1;1;1;1;ProcFischi1;ListBlockFischi;10;1;1;0;0;3;Po4_B;225;2;op;3;2;45;1;10;2;0;TrialProc;1681;1343;Po4_B;198;1517;1716;ListFischi1;0;;2;203;117866;12;13;1539;119405;275;1;1539;1;1078;579;1264;1;1
TMS_Ibrahim;40;1;"<?xml version=""1.0""?>\n<Clock xmlns:dt=""urn:schemas-microsoft-com:datatypes""><Description dt:dt=""string"">E-Prime Primary Realtime Clock</Description><StartTime><Timestamp dt:dt=""int"">0</Timestamp><DateUtc dt:dt=""string"">2022-09-08T08:46:15Z</DateUtc></StartTime><FrequencyChanges><FrequencyChange><Frequency dt:dt=""r8"">3312851</Frequency><Timestamp dt:dt=""r8"">18561345371</Timestamp><Current dt:dt=""r8"">0</Current><DateUtc dt:dt=""string"">2022-09-08T08:46:15Z</DateUtc></FrequencyChange></FrequencyChanges></Clock>\n";TMS_Ibrahim-40-1;75028;100561;1;;1382130953;2010242;2010242;09/08/2022;08/09/2022 08:46;10:46:15;2010147;0;;-999999;46;41071;0;1;1441;42512;1;1;1;2;1;0;1;BlockProcFischi;BlockList;1;100;0;;-999999;32;43976;0;1;1708;45684;1;1;1;1;ProcFischi1;ListBlockFischi;11;1;2;0;0;3;Pr5_B;250;3;ug;3;2;20;1;11;3;1;TrialProc;1691;676;Pr5_B;234;1510;1276;ListFischi1;0;;2;201;125490;11;13;1531;127021;331;1;1531;1;991;321;1200;1;1
TMS_Ibrahim;40;1;"<?xml version=""1.0""?>\n<Clock xmlns:dt=""urn:schemas-microsoft-com:datatypes""><Description dt:dt=""string"">E-Prime Primary Realtime Clock</Description><StartTime><Timestamp dt:dt=""int"">0</Timestamp><DateUtc dt:dt=""string"">2022-09-08T08:46:15Z</DateUtc></StartTime><FrequencyChanges><FrequencyChange><Frequency dt:dt=""r8"">3312851</Frequency><Timestamp dt:dt=""r8"">18561345371</Timestamp><Current dt:dt=""r8"">0</Current><DateUtc dt:dt=""string"">2022-09-08T08:46:15Z</DateUtc></FrequencyChange></FrequencyChanges></Clock>\n";TMS_Ibrahim-40-1;75028;100561;1;;1382130953;2010242;2010242;09/08/2022;08/09/2022 08:46;10:46:15;2010147;0;;-999999;46;41071;0;1;1441;42512;1;1;1;2;1;0;1;BlockProcFischi;BlockList;1;100;0;;-999999;32;43976;0;1;1708;45684;1;1;1;1;ProcFischi1;ListBlockFischi;12;0;2;0;0;3;Pr5_B;;3;ug;5;2;25;1;12;3;1;TrialProc;3220;676;Pr5_B;216;1492;1277;ListFischi1;0;;2;203;132739;13;15;1514;134253;330;1;1514;1;662;296;1184;1;0
TMS_Ibrahim;40;1;"<?xml version=""1.0""?>\n<Clock xmlns:dt=""urn:schemas-microsoft-com:datatypes""><Description dt:dt=""string"">E-Prime Primary Realtime Clock</Description><StartTime><Timestamp dt:dt=""int"">0</Timestamp><DateUtc dt:dt=""string"">2022-09-08T08:46:15Z</DateUtc></StartTime><FrequencyChanges><FrequencyChange><Frequency dt:dt=""r8"">3312851</Frequency><Timestamp dt:dt=""r8"">18561345371</Timestamp><Current dt:dt=""r8"">0</Current><DateUtc dt:dt=""string"">2022-09-08T08:46:15Z</DateUtc></FrequencyChange></FrequencyChanges></Clock>\n";TMS_Ibrahim-40-1;75028;100561;1;;1382130953;2010242;2010242;09/08/2022;08/09/2022 08:46;10:46:15;2010147;0;;-999999;46;41071;0;1;1441;42512;1;1;1;2;1;0;1;BlockProcFischi;BlockList;1;100;0;;-999999;32;43976;0;1;1708;45684;1;1;1;1;ProcFischi1;ListBlockFischi;13;1;1;0;0;3;Po5_B;200;2;op;3;2;41;1;13;2;0;TrialProc;1000;983;Po5_B;11;1466;1476;ListFischi1;0;;2;201;139816;13;13;1492;141308;324;1;1492;1;819;440;1168;1;1
TMS_Ibrahim;40;1;"<?xml version=""1.0""?>\n<Clock xmlns:dt=""urn:schemas-microsoft-com:datatypes""><Description dt:dt=""string"">E-Prime Primary Realtime Clock</Description><StartTime><Timestamp dt:dt=""int"">0</Timestamp><DateUtc dt:dt=""string"">2022-09-08T08:46:15Z</DateUtc></StartTime><FrequencyChanges><FrequencyChange><Frequency dt:dt=""r8"">3312851</Frequency><Timestamp dt:dt=""r8"">18561345371</Timestamp><Current dt:dt=""r8"">0</Current><DateUtc dt:dt=""string"">2022-09-08T08:46:15Z</DateUtc></FrequencyChange></FrequencyChanges></Clock>\n";TMS_Ibrahim-40-1;75028;100561;1;;1382130953;2010242;2010242;09/08/2022;08/09/2022 08:46;10:46:15;2010147;0;;-999999;46;41071;0;1;1441;42512;1;1;1;2;1;0;1;BlockProcFischi;BlockList;1;100;0;;-999999;32;43976;0;1;1708;45684;1;1;1;1;ProcFischi1;ListBlockFischi;14;1;2;0;0;3;Pr2_B;250;3;ug;3;2;17;1;14;3;1;TrialProc;817;715;Pr2_B;107;1356;1248;ListFischi1;0;;2;203;147282;11;13;1386;148668;395;1;1386;1;1050;523;991;1;1
TMS_Ibrahim;40;1;"<?xml version=""1.0""?>\n<Clock xmlns:dt=""urn:schemas-microsoft-com:datatypes""><Description dt:dt=""string"">E-Prime Primary Realtime Clock</Description><StartTime><Timestamp dt:dt=""int"">0</Timestamp><DateUtc dt:dt=""string"">2022-09-08T08:46:15Z</DateUtc></StartTime><FrequencyChanges><FrequencyChange><Frequency dt:dt=""r8"">3312851</Frequency><Timestamp dt:dt=""r8"">18561345371</Timestamp><Current dt:dt=""r8"">0</Current><DateUtc dt:dt=""string"">2022-09-08T08:46:15Z</DateUtc></FrequencyChange></FrequencyChanges></Clock>\n";TMS_Ibrahim-40-1;75028;100561;1;;1382130953;2010242;2010242;09/08/2022;08/09/2022 08:46;10:46:15;2010147;0;;-999999;46;41071;0;1;1441;42512;1;1;1;2;1;0;1;BlockProcFischi;BlockList;1;100;0;;-999999;32;43976;0;1;1708;45684;1;1;1;1;ProcFischi1;ListBlockFischi;15;1;2;0;0;5;Pr8_B;200;1;op;5;2;5;1;15;1;0;TrialProc;882;723;Pr8_B;28;1775;1748;ListFischi1;0;;2;201;154633;17;15;1811;156444;403;1;1811;1;533;222;1408;1;1
TMS_Ibrahim;40;1;"<?xml version=""1.0""?>\n<Clock xmlns:dt=""urn:schemas-microsoft-com:datatypes""><Description dt:dt=""string"">E-Prime Primary Realtime Clock</Description><StartTime><Timestamp dt:dt=""int"">0</Timestamp><DateUtc dt:dt=""string"">2022-09-08T08:46:15Z</DateUtc></StartTime><FrequencyChanges><FrequencyChange><Frequency dt:dt=""r8"">3312851</Frequency><Timestamp dt:dt=""r8"">18561345371</Timestamp><Current dt:dt=""r8"">0</Current><DateUtc dt:dt=""string"">2022-09-08T08:46:15Z</DateUtc></FrequencyChange></FrequencyChanges></Clock>\n";TMS_Ibrahim-40-1;75028;100561;1;;1382130953;2010242;2010242;09/08/2022;08/09/2022 08:46;10:46:15;2010147;0;;-999999;46;41071;0;1;1441;42512;1;1;1;2;1;0;1;BlockProcFischi;BlockList;1;100;0;;-999999;32;43976;0;1;1708;45684;1;1;1;1;ProcFischi1;ListBlockFischi;16;1;2;1;0;5;Prmod_B;175;1;op;5;2;15;1;16;1;0;TrialProc;874;1314;Prmod_B;152;1799;1646;ListFischi1;0;;2;203;161891;10;155;2457;164348;361;1;1833;1;697;252;1472;1;1
TMS_Ibrahim;40;1;"<?xml version=""1.0""?>\n<Clock xmlns:dt=""urn:schemas-microsoft-com:datatypes""><Description dt:dt=""string"">E-Prime Primary Realtime Clock</Description><StartTime><Timestamp dt:dt=""int"">0</Timestamp><DateUtc dt:dt=""string"">2022-09-08T08:46:15Z</DateUtc></StartTime><FrequencyChanges><FrequencyChange><Frequency dt:dt=""r8"">3312851</Frequency><Timestamp dt:dt=""r8"">18561345371</Timestamp><Current dt:dt=""r8"">0</Current><DateUtc dt:dt=""string"">2022-09-08T08:46:15Z</DateUtc></FrequencyChange></FrequencyChanges></Clock>\n";TMS_Ibrahim-40-1;75028;100561;1;;1382130953;2010242;2010242;09/08/2022;08/09/2022 08:46;10:46:15;2010147;0;;-999999;46;41071;0;1;1441;42512;1;1;1;2;1;0;1;BlockProcFischi;BlockList;1;100;0;;-999999;32;43976;0;1;1708;45684;1;1;1;1;ProcFischi1;ListBlockFischi;17;1;2;0;0;5;Pr2_B;175;1;op;5;2;1;1;17;1;0;TrialProc;1601;719;Pr2_B;75;1177;1252;ListFischi1;0;;2;201;168271;14;15;1197;169468;349;1;1197;1;71;206;848;1;1
TMS_Ibrahim;40;1;"<?xml version=""1.0""?>\n<Clock xmlns:dt=""urn:schemas-microsoft-com:datatypes""><Description dt:dt=""string"">E-Prime Primary Realtime Clock</Description><StartTime><Timestamp dt:dt=""int"">0</Timestamp><DateUtc dt:dt=""string"">2022-09-08T08:46:15Z</DateUtc></StartTime><FrequencyChanges><FrequencyChange><Frequency dt:dt=""r8"">3312851</Frequency><Timestamp dt:dt=""r8"">18561345371</Timestamp><Current dt:dt=""r8"">0</Current><DateUtc dt:dt=""string"">2022-09-08T08:46:15Z</DateUtc></FrequencyChange></FrequencyChanges></Clock>\n";TMS_Ibrahim-40-1;75028;100561;1;;1382130953;2010242;2010242;09/08/2022;08/09/2022 08:46;10:46:15;2010147;0;;-999999;46;41071;0;1;1441;42512;1;1;1;2;1;0;1;BlockProcFischi;BlockList;1;100;0;;-999999;32;43976;0;1;1708;45684;1;1;1;1;ProcFischi1;ListBlockFischi;18;1;1;0;0;5;Po3_B;200;4;ug;5;2;55;1;18;4;1;TrialProc;1404;1316;Po3_B;72;1510;1582;ListFischi1;0;;2;203;175536;13;15;1531;177067;365;1;1531;1;457;337;1166;1;1
TMS_Ibrahim;40;1;"<?xml version=""1.0""?>\n<Clock xmlns:dt=""urn:schemas-microsoft-com:datatypes""><Description dt:dt=""string"">E-Prime Primary Realtime Clock</Description><StartTime><Timestamp dt:dt=""int"">0</Timestamp><DateUtc dt:dt=""string"">2022-09-08T08:46:15Z</DateUtc></StartTime><FrequencyChanges><FrequencyChange><Frequency dt:dt=""r8"">3312851</Frequency><Timestamp dt:dt=""r8"">18561345371</Timestamp><Current dt:dt=""r8"">0</Current><DateUtc dt:dt=""string"">2022-09-08T08:46:15Z</DateUtc></FrequencyChange></FrequencyChanges></Clock>\n";TMS_Ibrahim-40-1;75028;100561;1;;1382130953;2010242;2010242;09/08/2022;08/09/2022 08:46;10:46:15;2010147;0;;-999999;46;41071;0;1;1441;42512;1;1;1;2;1;0;1;BlockProcFischi;BlockList;1;100;0;;-999999;32;43976;0;1;1708;45684;1;1;1;1;ProcFischi1;ListBlockFischi;19;1;1;0;0;5;Po3_B;175;4;ug;5;2;50;1;19;4;1;TrialProc;1155;1315;Po3_B;69;1513;1582;ListFischi1;0;;2;201;183002;11;15;1537;184539;353;1;1537;1;323;403;1184;1;1
TMS_Ibrahim;40;1;"<?xml version=""1.0""?>\n<Clock xmlns:dt=""urn:schemas-microsoft-com:datatypes""><Description dt:dt=""string"">E-Prime Primary Realtime Clock</Description><StartTime><Timestamp dt:dt=""int"">0</Timestamp><DateUtc dt:dt=""string"">2022-09-08T08:46:15Z</DateUtc></StartTime><FrequencyChanges><FrequencyChange><Frequency dt:dt=""r8"">3312851</Frequency><Timestamp dt:dt=""r8"">18561345371</Timestamp><Current dt:dt=""r8"">0</Current><DateUtc dt:dt=""string"">2022-09-08T08:46:15Z</DateUtc></FrequencyChange></FrequencyChanges></Clock>\n";TMS_Ibrahim-40-1;75028;100561;1;;1382130953;2010242;2010242;09/08/2022;08/09/2022 08:46;10:46:15;2010147;0;;-999999;46;41071;0;1;1441;42512;1;1;1;2;1;0;1;BlockProcFischi;BlockList;1;100;0;;-999999;32;43976;0;1;1708;45684;1;1;1;1;ProcFischi1;ListBlockFischi;20;1;2;0;0;5;Pr4_B;150;1;op;5;2;8;1;20;1;0;TrialProc;946;677;Pr4_B;60;1311;1251;ListFischi1;0;;2;203;190196;14;15;1335;191531;279;1;1335;1;548;392;1056;1;1
TMS_Ibrahim;40;1;"<?xml version=""1.0""?>\n<Clock xmlns:dt=""urn:schemas-microsoft-com:datatypes""><Description dt:dt=""string"">E-Prime Primary Realtime Clock</Description><StartTime><Timestamp dt:dt=""int"">0</Timestamp><DateUtc dt:dt=""string"">2022-09-08T08:46:15Z</DateUtc></StartTime><FrequencyChanges><FrequencyChange><Frequency dt:dt=""r8"">3312851</Frequency><Timestamp dt:dt=""r8"">18561345371</Timestamp><Current dt:dt=""r8"">0</Current><DateUtc dt:dt=""string"">2022-09-08T08:46:15Z</DateUtc></FrequencyChange></FrequencyChanges></Clock>\n";TMS_Ibrahim-40-1;75028;100561;1;;1382130953;2010242;2010242;09/08/2022;08/09/2022 08:46;10:46:15;2010147;0;;-999999;46;41071;0;1;1441;42512;1;1;1;2;1;0;1;BlockProcFischi;BlockList;1;100;0;;-999999;32;43976;0;1;1708;45684;1;1;1;1;ProcFischi1;ListBlockFischi;21;1;1;0;0;3;Po2_B;175;2;op;3;2;33;1;21;2;0;TrialProc;871;1583;Po2_B;216;1593;1809;ListFischi1;0;;2;201;197276;11;13;1615;198891;321;1;1615;1;825;513;1294;1;1
TMS_Ibrahim;40;1;"<?xml version=""1.0""?>\n<Clock xmlns:dt=""urn:schemas-microsoft-com:datatypes""><Description dt:dt=""string"">E-Prime Primary Realtime Clock</Description><StartTime><Timestamp dt:dt=""int"">0</Timestamp><DateUtc dt:dt=""string"">2022-09-08T08:46:15Z</DateUtc></StartTime><FrequencyChanges><FrequencyChange><Frequency dt:dt=""r8"">3312851</Frequency><Timestamp dt:dt=""r8"">18561345371</Timestamp><Current dt:dt=""r8"">0</Current><DateUtc dt:dt=""string"">2022-09-08T08:46:15Z</DateUtc></FrequencyChange></FrequencyChanges></Clock>\n";TMS_Ibrahim-40-1;75028;100561;1;;1382130953;2010242;2010242;09/08/2022;08/09/2022 08:46;10:46:15;2010147;0;;-999999;46;41071;0;1;1441;42512;1;1;1;2;1;0;1;BlockProcFischi;BlockList;1;100;0;;-999999;32;43976;0;1;1708;45684;1;1;1;1;ProcFischi1;ListBlockFischi;22;0;1;0;0;5;Po2_B;;4;ug;3;2;49;1;22;4;1;TrialProc;2851;1583;Po2_B;160;1651;1811;ListFischi1;0;;2;203;204938;13;13;1681;206619;337;1;1681;1;347;472;1344;1;0
TMS_Ibrahim;40;1;"<?xml version=""1.0""?>\n<Clock xmlns:dt=""urn:schemas-microsoft-com:datatypes""><Description dt:dt=""string"">E-Prime Primary Realtime Clock</Description><StartTime><Timestamp dt:dt=""int"">0</Timestamp><DateUtc dt:dt=""string"">2022-09-08T08:46:15Z</DateUtc></StartTime><FrequencyChanges><FrequencyChange><Frequency dt:dt=""r8"">3312851</Frequency><Timestamp dt:dt=""r8"">18561345371</Timestamp><Current dt:dt=""r8"">0</Current><DateUtc dt:dt=""string"">2022-09-08T08:46:15Z</DateUtc></FrequencyChange></FrequencyChanges></Clock>\n";TMS_Ibrahim-40-1;75028;100561;1;;1382130953;2010242;2010242;09/08/2022;08/09/2022 08:46;10:46:15;2010147;0;;-999999;46;41071;0;1;1441;42512;1;1;1;2;1;0;1;BlockProcFischi;BlockList;1;100;0;;-999999;32;43976;0;1;1708;45684;1;1;1;1;ProcFischi1;ListBlockFischi;23;1;1;0;0;5;Po5_B;150;4;ug;5;2;57;1;23;4;1;TrialProc;1064;994;Po5_B;15;1489;1473;ListFischi1;0;;2;203;213351;10;15555;3683;217034;307;1;1523;1;1949;591;1216;1;1
TMS_Ibrahim;40;1;"<?xml version=""1.0""?>\n<Clock xmlns:dt=""urn:schemas-microsoft-com:datatypes""><Description dt:dt=""string"">E-Prime Primary Realtime Clock</Description><StartTime><Timestamp dt:dt=""int"">0</Timestamp><DateUtc dt:dt=""string"">2022-09-08T08:46:15Z</DateUtc></StartTime><FrequencyChanges><FrequencyChange><Frequency dt:dt=""r8"">3312851</Frequency><Timestamp dt:dt=""r8"">18561345371</Timestamp><Current dt:dt=""r8"">0</Current><DateUtc dt:dt=""string"">2022-09-08T08:46:15Z</DateUtc></FrequencyChange></FrequencyChanges></Clock>\n";TMS_Ibrahim-40-1;75028;100561;1;;1382130953;2010242;2010242;09/08/2022;08/09/2022 08:46;10:46:15;2010147;0;;-999999;46;41071;0;1;1441;42512;1;1;1;2;1;0;1;BlockProcFischi;BlockList;1;100;0;;-999999;32;43976;0;1;1708;45684;1;1;1;1;ProcFischi1;ListBlockFischi;24;1;2;0;0;5;Pr3_B;125;1;op;5;2;2;1;24;1;0;TrialProc;1079;715;Pr3_B;42;1674;1716;ListFischi1;0;;3;201;220867;11;15;1703;222570;567;1;1703;1;3501;563;1136;1;1
TMS_Ibrahim;40;1;"<?xml version=""1.0""?>\n<Clock xmlns:dt=""urn:schemas-microsoft-com:datatypes""><Description dt:dt=""string"">E-Prime Primary Realtime Clock</Description><StartTime><Timestamp dt:dt=""int"">0</Timestamp><DateUtc dt:dt=""string"">2022-09-08T08:46:15Z</DateUtc></StartTime><FrequencyChanges><FrequencyChange><Frequency dt:dt=""r8"">3312851</Frequency><Timestamp dt:dt=""r8"">18561345371</Timestamp><Current dt:dt=""r8"">0</Current><DateUtc dt:dt=""string"">2022-09-08T08:46:15Z</DateUtc></FrequencyChange></FrequencyChanges></Clock>\n";TMS_Ibrahim-40-1;75028;100561;1;;1382130953;2010242;2010242;09/08/2022;08/09/2022 08:46;10:46:15;2010147;0;;-999999;46;41071;0;1;1441;42512;1;1;1;2;1;0;1;BlockProcFischi;BlockList;1;100;0;;-999999;32;43976;0;1;1708;45684;1;1;1;1;ProcFischi1;ListBlockFischi;25;1;1;0;0;5;Po3_B;125;4;ug;5;2;60;1;25;4;1;TrialProc;1356;1321;Po3_B;123;1466;1589;ListFischi1;0;;2;203;228963;19;15;1495;230458;455;1;1495;1;754;331;1040;1;1
TMS_Ibrahim;40;1;"<?xml version=""1.0""?>\n<Clock xmlns:dt=""urn:schemas-microsoft-com:datatypes""><Description dt:dt=""string"">E-Prime Primary Realtime Clock</Description><StartTime><Timestamp dt:dt=""int"">0</Timestamp><DateUtc dt:dt=""string"">2022-09-08T08:46:15Z</DateUtc></StartTime><FrequencyChanges><FrequencyChange><Frequency dt:dt=""r8"">3312851</Frequency><Timestamp dt:dt=""r8"">18561345371</Timestamp><Current dt:dt=""r8"">0</Current><DateUtc dt:dt=""string"">2022-09-08T08:46:15Z</DateUtc></FrequencyChange></FrequencyChanges></Clock>\n";TMS_Ibrahim-40-1;75028;100561;1;;1382130953;2010242;2010242;09/08/2022;08/09/2022 08:46;10:46:15;2010147;0;;-999999;46;41071;0;1;1441;42512;1;1;1;2;1;0;1;BlockProcFischi;BlockList;1;100;0;;-999999;32;43976;0;1;1708;45684;1;1;1;1;ProcFischi1;ListBlockFischi;26;1;1;0;1;3;Po8_B;175;2;op;3;2;37;1;26;2;0;TrialProc;1130;1254;Po8_B;6;1594;1588;ListFischi1;0;;2;201;236710;15;13;1620;238330;468;1;1620;1;344;380;1152;1;1
TMS_Ibrahim;40;1;"<?xml version=""1.0""?>\n<Clock xmlns:dt=""urn:schemas-microsoft-com:datatypes""><Description dt:dt=""string"">E-Prime Primary Realtime Clock</Description><StartTime><Timestamp dt:dt=""int"">0</Timestamp><DateUtc dt:dt=""string"">2022-09-08T08:46:15Z</DateUtc></StartTime><FrequencyChanges><FrequencyChange><Frequency dt:dt=""r8"">3312851</Frequency><Timestamp dt:dt=""r8"">18561345371</Timestamp><Current dt:dt=""r8"">0</Current><DateUtc dt:dt=""string"">2022-09-08T08:46:15Z</DateUtc></FrequencyChange></FrequencyChanges></Clock>\n";TMS_Ibrahim-40-1;75028;100561;1;;1382130953;2010242;2010242;09/08/2022;08/09/2022 08:46;10:46:15;2010147;0;;-999999;46;41071;0;1;1441;42512;1;1;1;2;1;0;1;BlockProcFischi;BlockList;1;100;0;;-999999;32;43976;0;1;1708;45684;1;1;1;1;ProcFischi1;ListBlockFischi;27;1;1;0;0;5;Po8_B;125;4;ug;5;2;58;1;27;4;1;TrialProc;922;1244;Po8_B;43;1533;1576;ListFischi1;0;;2;203;243942;7;15;1556;245498;436;1;1556;1;1057;499;1120;1;1
TMS_Ibrahim;40;1;"<?xml version=""1.0""?>\n<Clock xmlns:dt=""urn:schemas-microsoft-com:datatypes""><Description dt:dt=""string"">E-Prime Primary Realtime Clock</Description><StartTime><Timestamp dt:dt=""int"">0</Timestamp><DateUtc dt:dt=""string"">2022-09-08T08:46:15Z</DateUtc></StartTime><FrequencyChanges><FrequencyChange><Frequency dt:dt=""r8"">3312851</Frequency><Timestamp dt:dt=""r8"">18561345371</Timestamp><Current dt:dt=""r8"">0</Current><DateUtc dt:dt=""string"">2022-09-08T08:46:15Z</DateUtc></FrequencyChange></FrequencyChanges></Clock>\n";TMS_Ibrahim-40-1;75028;100561;1;;1382130953;2010242;2010242;09/08/2022;08/09/2022 08:46;10:46:15;2010147;0;;-999999;46;41071;0;1;1441;42512;1;1;1;2;1;0;1;BlockProcFischi;BlockList;1;100;0;;-999999;32;43976;0;1;1708;45684;1;1;1;1;ProcFischi1;ListBlockFischi;28;1;1;0;0;3;Po3_B;150;2;op;3;2;39;1;28;2;0;TrialProc;811;1315;Po3_B;169;1412;1581;ListFischi1;0;;1;202;251509;11;133;1636;253145;311;1;1444;1;666;385;1133;1;1
TMS_Ibrahim;40;1;"<?xml version=""1.0""?>\n<Clock xmlns:dt=""urn:schemas-microsoft-com:datatypes""><Description dt:dt=""string"">E-Prime Primary Realtime Clock</Description><StartTime><Timestamp dt:dt=""int"">0</Timestamp><DateUtc dt:dt=""string"">2022-09-08T08:46:15Z</DateUtc></StartTime><FrequencyChanges><FrequencyChange><Frequency dt:dt=""r8"">3312851</Frequency><Timestamp dt:dt=""r8"">18561345371</Timestamp><Current dt:dt=""r8"">0</Current><DateUtc dt:dt=""string"">2022-09-08T08:46:15Z</DateUtc></FrequencyChange></FrequencyChanges></Clock>\n";TMS_Ibrahim-40-1;75028;100561;1;;1382130953;2010242;2010242;09/08/2022;08/09/2022 08:46;10:46:15;2010147;0;;-999999;46;41071;0;1;1441;42512;1;1;1;2;1;0;1;BlockProcFischi;BlockList;1;100;0;;-999999;32;43976;0;1;1708;45684;1;1;1;1;ProcFischi1;ListBlockFischi;29;1;2;0;0;3;Pr8_B;225;3;ug;3;2;21;1;29;3;1;TrialProc;876;729;Pr8_B;30;1772;1743;ListFischi1;0;;2;203;258719;11;13;1802;260521;410;1;1802;1;704;318;1392;1;1
TMS_Ibrahim;40;1;"<?xml version=""1.0""?>\n<Clock xmlns:dt=""urn:schemas-microsoft-com:datatypes""><Description dt:dt=""string"">E-Prime Primary Realtime Clock</Description><StartTime><Timestamp dt:dt=""int"">0</Timestamp><DateUtc dt:dt=""string"">2022-09-08T08:46:15Z</DateUtc></StartTime><FrequencyChanges><FrequencyChange><Frequency dt:dt=""r8"">3312851</Frequency><Timestamp dt:dt=""r8"">18561345371</Timestamp><Current dt:dt=""r8"">0</Current><DateUtc dt:dt=""string"">2022-09-08T08:46:15Z</DateUtc></FrequencyChange></FrequencyChanges></Clock>\n";TMS_Ibrahim-40-1;75028;100561;1;;1382130953;2010242;2010242;09/08/2022;08/09/2022 08:46;10:46:15;2010147;0;;-999999;46;41071;0;1;1441;42512;1;1;1;2;1;0;1;BlockProcFischi;BlockList;1;100;0;;-999999;32;43976;0;1;1708;45684;1;1;1;1;ProcFischi1;ListBlockFischi;30;1;1;0;0;3;Po3_B;150;2;op;3;2;34;1;30;2;0;TrialProc;995;1316;Po3_B;42;1540;1581;ListFischi1;0;;2;201;266076;11;13;1565;267641;397;1;1565;1;348;285;1168;1;1
TMS_Ibrahim;40;1;"<?xml version=""1.0""?>\n<Clock xmlns:dt=""urn:schemas-microsoft-com:datatypes""><Description dt:dt=""string"">E-Prime Primary Realtime Clock</Description><StartTime><Timestamp dt:dt=""int"">0</Timestamp><DateUtc dt:dt=""string"">2022-09-08T08:46:15Z</DateUtc></StartTime><FrequencyChanges><FrequencyChange><Frequency dt:dt=""r8"">3312851</Frequency><Timestamp dt:dt=""r8"">18561345371</Timestamp><Current dt:dt=""r8"">0</Current><DateUtc dt:dt=""string"">2022-09-08T08:46:15Z</DateUtc></FrequencyChange></FrequencyChanges></Clock>\n";TMS_Ibrahim-40-1;75028;100561;1;;1382130953;2010242;2010242;09/08/2022;08/09/2022 08:46;10:46:15;2010147;0;;-999999;46;41071;0;1;1441;42512;1;1;1;2;1;0;1;BlockProcFischi;BlockList;1;100;0;;-999999;32;43976;0;1;1708;45684;1;1;1;1;ProcFischi1;ListBlockFischi;31;1;2;0;0;3;Pr5_B;200;3;ug;3;2;30;1;31;3;1;TrialProc;784;672;Pr5_B;73;1345;1271;ListFischi1;0;;2;203;273850;8;13;1375;275225;399;1;1375;1;1594;467;976;1;1
TMS_Ibrahim;40;1;"<?xml version=""1.0""?>\n<Clock xmlns:dt=""urn:schemas-microsoft-com:datatypes""><Description dt:dt=""string"">E-Prime Primary Realtime Clock</Description><StartTime><Timestamp dt:dt=""int"">0</Timestamp><DateUtc dt:dt=""string"">2022-09-08T08:46:15Z</DateUtc></StartTime><FrequencyChanges><FrequencyChange><Frequency dt:dt=""r8"">3312851</Frequency><Timestamp dt:dt=""r8"">18561345371</Timestamp><Current dt:dt=""r8"">0</Current><DateUtc dt:dt=""string"">2022-09-08T08:46:15Z</DateUtc></FrequencyChange></FrequencyChanges></Clock>\n";TMS_Ibrahim-40-1;75028;100561;1;;1382130953;2010242;2010242;09/08/2022;08/09/2022 08:46;10:46:15;2010147;0;;-999999;46;41071;0;1;1441;42512;1;1;1;2;1;0;1;BlockProcFischi;BlockList;1;100;0;;-999999;32;43976;0;1;1708;45684;1;1;1;1;ProcFischi1;ListBlockFischi;32;1;1;0;0;5;Po4_B;100;4;ug;5;2;51;1;32;4;1;TrialProc;1126;1345;Po4_B;311;1407;1718;ListFischi1;0;;2;201;281081;14;15;1440;282521;384;1;1440;1;260;270;1056;1;1
TMS_Ibrahim;40;1;"<?xml version=""1.0""?>\n<Clock xmlns:dt=""urn:schemas-microsoft-com:datatypes""><Description dt:dt=""string"">E-Prime Primary Realtime Clock</Description><StartTime><Timestamp dt:dt=""int"">0</Timestamp><DateUtc dt:dt=""string"">2022-09-08T08:46:15Z</DateUtc></StartTime><FrequencyChanges><FrequencyChange><Frequency dt:dt=""r8"">3312851</Frequency><Timestamp dt:dt=""r8"">18561345371</Timestamp><Current dt:dt=""r8"">0</Current><DateUtc dt:dt=""string"">2022-09-08T08:46:15Z</DateUtc></FrequencyChange></FrequencyChanges></Clock>\n";TMS_Ibrahim-40-1;75028;100561;1;;1382130953;2010242;2010242;09/08/2022;08/09/2022 08:46;10:46:15;2010147;0;;-999999;46;41071;0;1;1441;42512;1;1;1;2;1;0;1;BlockProcFischi;BlockList;1;100;0;;-999999;32;43976;0;1;1708;45684;1;1;1;1;ProcFischi1;ListBlockFischi;33;1;1;0;0;3;Po5_B;125;2;op;3;2;46;1;33;2;0;TrialProc;1345;979;Po5_B;113;1358;1472;ListFischi1;0;;2;203;288817;8;13;1383;290200;407;1;1383;1;361;405;976;1;1
TMS_Ibrahim;40;1;"<?xml version=""1.0""?>\n<Clock xmlns:dt=""urn:schemas-microsoft-com:datatypes""><Description dt:dt=""string"">E-Prime Primary Realtime Clock</Description><StartTime><Timestamp dt:dt=""int"">0</Timestamp><DateUtc dt:dt=""string"">2022-09-08T08:46:15Z</DateUtc></StartTime><FrequencyChanges><FrequencyChange><Frequency dt:dt=""r8"">3312851</Frequency><Timestamp dt:dt=""r8"">18561345371</Timestamp><Current dt:dt=""r8"">0</Current><DateUtc dt:dt=""string"">2022-09-08T08:46:15Z</DateUtc></FrequencyChange></FrequencyChanges></Clock>\n";TMS_Ibrahim-40-1;75028;100561;1;;1382130953;2010242;2010242;09/08/2022;08/09/2022 08:46;10:46:15;2010147;0;;-999999;46;41071;0;1;1441;42512;1;1;1;2;1;0;1;BlockProcFischi;BlockList;1;100;0;;-999999;32;43976;0;1;1708;45684;1;1;1;1;ProcFischi1;ListBlockFischi;34;1;2;0;0;5;Pr4_B;100;1;op;5;2;13;1;34;1;0;TrialProc;1045;675;Pr4_B;128;1377;1249;ListFischi1;0;;2;201;296278;11;15;1410;297688;354;1;1410;1;1049;598;1056;1;1
TMS_Ibrahim;40;1;"<?xml version=""1.0""?>\n<Clock xmlns:dt=""urn:schemas-microsoft-com:datatypes""><Description dt:dt=""string"">E-Prime Primary Realtime Clock</Description><StartTime><Timestamp dt:dt=""int"">0</Timestamp><DateUtc dt:dt=""string"">2022-09-08T08:46:15Z</DateUtc></StartTime><FrequencyChanges><FrequencyChange><Frequency dt:dt=""r8"">3312851</Frequency><Timestamp dt:dt=""r8"">18561345371</Timestamp><Current dt:dt=""r8"">0</Current><DateUtc dt:dt=""string"">2022-09-08T08:46:15Z</DateUtc></FrequencyChange></FrequencyChanges></Clock>\n";TMS_Ibrahim-40-1;75028;100561;1;;1382130953;2010242;2010242;09/08/2022;08/09/2022 08:46;10:46:15;2010147;0;;-999999;46;41071;0;1;1441;42512;1;1;1;2;1;0;1;BlockProcFischi;BlockList;1;100;0;;-999999;32;43976;0;1;1708;45684;1;1;1;1;ProcFischi1;ListBlockFischi;35;1;1;0;1;5;Po4_B;100;4;ug;5;2;61;1;35;4;1;TrialProc;1203;1341;Po4_B;125;1590;1714;ListFischi1;0;;2;203;303702;11;155;3266;306968;386;1;1618;1;740;457;1232;1;1
TMS_Ibrahim;40;1;"<?xml version=""1.0""?>\n<Clock xmlns:dt=""urn:schemas-microsoft-com:datatypes""><Description dt:dt=""string"">E-Prime Primary Realtime Clock</Description><StartTime><Timestamp dt:dt=""int"">0</Timestamp><DateUtc dt:dt=""string"">2022-09-08T08:46:15Z</DateUtc></StartTime><FrequencyChanges><FrequencyChange><Frequency dt:dt=""r8"">3312851</Frequency><Timestamp dt:dt=""r8"">18561345371</Timestamp><Current dt:dt=""r8"">0</Current><DateUtc dt:dt=""string"">2022-09-08T08:46:15Z</DateUtc></FrequencyChange></FrequencyChanges></Clock>\n";TMS_Ibrahim-40-1;75028;100561;1;;1382130953;2010242;2010242;09/08/2022;08/09/2022 08:46;10:46:15;2010147;0;;-999999;46;41071;0;1;1441;42512;1;1;1;2;1;0;1;BlockProcFischi;BlockList;1;100;0;;-999999;32;43976;0;1;1708;45684;1;1;1;1;ProcFischi1;ListBlockFischi;36;1;2;0;1;5;Pr8_B;100;1;op;5;2;10;1;36;1;0;TrialProc;1080;6000;Pr8_B;22;6000;6000;ListFischi1;0;;2;201;309467;17;15;1805;311272;445;1;1805;1;549;554;1360;1;1
TMS_Ibrahim;40;1;"<?xml version=""1.0""?>\n<Clock xmlns:dt=""urn:schemas-microsoft-com:datatypes""><Description dt:dt=""string"">E-Prime Primary Realtime Clock</Description><StartTime><Timestamp dt:dt=""int"">0</Timestamp><DateUtc dt:dt=""string"">2022-09-08T08:46:15Z</DateUtc></StartTime><FrequencyChanges><FrequencyChange><Frequency dt:dt=""r8"">3312851</Frequency><Timestamp dt:dt=""r8"">18561345371</Timestamp><Current dt:dt=""r8"">0</Current><DateUtc dt:dt=""string"">2022-09-08T08:46:15Z</DateUtc></FrequencyChange></FrequencyChanges></Clock>\n";TMS_Ibrahim-40-1;75028;100561;1;;1382130953;2010242;2010242;09/08/2022;08/09/2022 08:46;10:46:15;2010147;0;;-999999;46;41071;0;1;1441;42512;1;1;1;2;1;0;1;BlockProcFischi;BlockList;1;100;0;;-999999;32;43976;0;1;1708;45684;1;1;1;1;ProcFischi1;ListBlockFischi;37;1;1;0;0;3;Po5_B;125;2;op;3;2;36;1;37;2;0;TrialProc;1104;981;Po5_B;14;1459;1473;ListFischi1;0;;2;203;316472;9;13;1488;317960;368;1;1488;1;475;257;1120;1;1
TMS_Ibrahim;40;1;"<?xml version=""1.0""?>\n<Clock xmlns:dt=""urn:schemas-microsoft-com:datatypes""><Description dt:dt=""string"">E-Prime Primary Realtime Clock</Description><StartTime><Timestamp dt:dt=""int"">0</Timestamp><DateUtc dt:dt=""string"">2022-09-08T08:46:15Z</DateUtc></StartTime><FrequencyChanges><FrequencyChange><Frequency dt:dt=""r8"">3312851</Frequency><Timestamp dt:dt=""r8"">18561345371</Timestamp><Current dt:dt=""r8"">0</Current><DateUtc dt:dt=""string"">2022-09-08T08:46:15Z</DateUtc></FrequencyChange></FrequencyChanges></Clock>\n";TMS_Ibrahim-40-1;75028;100561;1;;1382130953;2010242;2010242;09/08/2022;08/09/2022 08:46;10:46:15;2010147;0;;-999999;46;41071;0;1;1441;42512;1;1;1;2;1;0;1;BlockProcFischi;BlockList;1;100;0;;-999999;32;43976;0;1;1708;45684;1;1;1;1;ProcFischi1;ListBlockFischi;38;1;1;0;1;5;Po2_B;100;4;ug;5;2;59;1;38;4;1;TrialProc;1310;1584;Po2_B;175;1636;1811;ListFischi1;0;;2;201;323999;13;15;1656;325655;409;1;1656;1;742;394;1247;1;1
TMS_Ibrahim;40;1;"<?xml version=""1.0""?>\n<Clock xmlns:dt=""urn:schemas-microsoft-com:datatypes""><Description dt:dt=""string"">E-Prime Primary Realtime Clock</Description><StartTime><Timestamp dt:dt=""int"">0</Timestamp><DateUtc dt:dt=""string"">2022-09-08T08:46:15Z</DateUtc></StartTime><FrequencyChanges><FrequencyChange><Frequency dt:dt=""r8"">3312851</Frequency><Timestamp dt:dt=""r8"">18561345371</Timestamp><Current dt:dt=""r8"">0</Current><DateUtc dt:dt=""string"">2022-09-08T08:46:15Z</DateUtc></FrequencyChange></FrequencyChanges></Clock>\n";TMS_Ibrahim-40-1;75028;100561;1;;1382130953;2010242;2010242;09/08/2022;08/09/2022 08:46;10:46:15;2010147;0;;-999999;46;41071;0;1;1441;42512;1;1;1;2;1;0;1;BlockProcFischi;BlockList;1;100;0;;-999999;32;43976;0;1;1708;45684;1;1;1;1;ProcFischi1;ListBlockFischi;39;1;1;1;2;5;Pomod_B;100;4;ug;5;2;64;1;39;4;1;TrialProc;1244;1311;Pomod_B;59;1729;1671;ListFischi1;0;;2;203;331709;7;15;1754;333463;506;1;1754;1;690;396;1248;1;1
TMS_Ibrahim;40;1;"<?xml version=""1.0""?>\n<Clock xmlns:dt=""urn:schemas-microsoft-com:datatypes""><Description dt:dt=""string"">E-Prime Primary Realtime Clock</Description><StartTime><Timestamp dt:dt=""int"">0</Timestamp><DateUtc dt:dt=""string"">2022-09-08T08:46:15Z</DateUtc></StartTime><FrequencyChanges><FrequencyChange><Frequency dt:dt=""r8"">3312851</Frequency><Timestamp dt:dt=""r8"">18561345371</Timestamp><Current dt:dt=""r8"">0</Current><DateUtc dt:dt=""string"">2022-09-08T08:46:15Z</DateUtc></FrequencyChange></FrequencyChanges></Clock>\n";TMS_Ibrahim-40-1;75028;100561;1;;1382130953;2010242;2010242;09/08/2022;08/09/2022 08:46;10:46:15;2010147;0;;-999999;46;41071;0;1;1441;42512;1;1;1;2;1;0;1;BlockProcFischi;BlockList;1;100;0;;-999999;32;43976;0;1;1708;45684;1;1;1;1;ProcFischi1;ListBlockFischi;40;1;2;0;0;3;Pr2_B;175;3;ug;3;2;27;1;40;3;1;TrialProc;1335;715;Pr2_B;225;1473;1249;ListFischi1;0;;2;201;339128;11;13;1503;340631;463;1;1503;1;740;365;1040;1;1
TMS_Ibrahim;40;1;"<?xml version=""1.0""?>\n<Clock xmlns:dt=""urn:schemas-microsoft-com:datatypes""><Description dt:dt=""string"">E-Prime Primary Realtime Clock</Description><StartTime><Timestamp dt:dt=""int"">0</Timestamp><DateUtc dt:dt=""string"">2022-09-08T08:46:15Z</DateUtc></StartTime><FrequencyChanges><FrequencyChange><Frequency dt:dt=""r8"">3312851</Frequency><Timestamp dt:dt=""r8"">18561345371</Timestamp><Current dt:dt=""r8"">0</Current><DateUtc dt:dt=""string"">2022-09-08T08:46:15Z</DateUtc></FrequencyChange></FrequencyChanges></Clock>\n";TMS_Ibrahim-40-1;75028;100561;1;;1382130953;2010242;2010242;09/08/2022;08/09/2022 08:46;10:46:15;2010147;0;;-999999;46;41071;0;1;1441;42512;1;1;1;2;1;0;1;BlockProcFischi;BlockList;1;100;0;;-999999;32;43976;0;1;1708;45684;1;1;1;1;ProcFischi1;ListBlockFischi;41;1;2;1;1;3;Prmod_B;175;3;ug;3;2;32;1;41;3;1;TrialProc;1778;1313;Prmod_B;78;1725;1646;ListFischi1;0;;2;203;346433;10;13;1750;348183;358;1;1750;1;782;226;1392;1;1
TMS_Ibrahim;40;1;"<?xml version=""1.0""?>\n<Clock xmlns:dt=""urn:schemas-microsoft-com:datatypes""><Description dt:dt=""string"">E-Prime Primary Realtime Clock</Description><StartTime><Timestamp dt:dt=""int"">0</Timestamp><DateUtc dt:dt=""string"">2022-09-08T08:46:15Z</DateUtc></StartTime><FrequencyChanges><FrequencyChange><Frequency dt:dt=""r8"">3312851</Frequency><Timestamp dt:dt=""r8"">18561345371</Timestamp><Current dt:dt=""r8"">0</Current><DateUtc dt:dt=""string"">2022-09-08T08:46:15Z</DateUtc></FrequencyChange></FrequencyChanges></Clock>\n";TMS_Ibrahim-40-1;75028;100561;1;;1382130953;2010242;2010242;09/08/2022;08/09/2022 08:46;10:46:15;2010147;0;;-999999;46;41071;0;1;1441;42512;1;1;1;2;1;0;1;BlockProcFischi;BlockList;1;100;0;;-999999;32;43976;0;1;1708;45684;1;1;1;1;ProcFischi1;ListBlockFischi;42;1;1;0;0;3;Po8_B;100;2;op;3;2;42;1;42;2;0;TrialProc;1804;1252;Po8_B;200;1787;1586;ListFischi1;0;;2;203;353772;15;13;1819;355591;411;1;1819;1;450;555;1408;1;1
TMS_Ibrahim;40;1;"<?xml version=""1.0""?>\n<Clock xmlns:dt=""urn:schemas-microsoft-com:datatypes""><Description dt:dt=""string"">E-Prime Primary Realtime Clock</Description><StartTime><Timestamp dt:dt=""int"">0</Timestamp><DateUtc dt:dt=""string"">2022-09-08T08:46:15Z</DateUtc></StartTime><FrequencyChanges><FrequencyChange><Frequency dt:dt=""r8"">3312851</Frequency><Timestamp dt:dt=""r8"">18561345371</Timestamp><Current dt:dt=""r8"">0</Current><DateUtc dt:dt=""string"">2022-09-08T08:46:15Z</DateUtc></FrequencyChange></FrequencyChanges></Clock>\n";TMS_Ibrahim-40-1;75028;100561;1;;1382130953;2010242;2010242;09/08/2022;08/09/2022 08:46;10:46:15;2010147;0;;-999999;46;41071;0;1;1441;42512;1;1;1;2;1;0;1;BlockProcFischi;BlockList;1;100;0;;-999999;32;43976;0;1;1708;45684;1;1;1;1;ProcFischi1;ListBlockFischi;43;1;2;1;0;3;Prmod_B;150;3;ug;3;2;31;1;43;3;1;TrialProc;1229;1315;Prmod_B;26;1622;1649;ListFischi1;0;;2;201;360919;12;133;3071;363990;384;1;1648;1;571;406;1264;1;1
TMS_Ibrahim;40;1;"<?xml version=""1.0""?>\n<Clock xmlns:dt=""urn:schemas-microsoft-com:datatypes""><Description dt:dt=""string"">E-Prime Primary Realtime Clock</Description><StartTime><Timestamp dt:dt=""int"">0</Timestamp><DateUtc dt:dt=""string"">2022-09-08T08:46:15Z</DateUtc></StartTime><FrequencyChanges><FrequencyChange><Frequency dt:dt=""r8"">3312851</Frequency><Timestamp dt:dt=""r8"">18561345371</Timestamp><Current dt:dt=""r8"">0</Current><DateUtc dt:dt=""string"">2022-09-08T08:46:15Z</DateUtc></FrequencyChange></FrequencyChanges></Clock>\n";TMS_Ibrahim-40-1;75028;100561;1;;1382130953;2010242;2010242;09/08/2022;08/09/2022 08:46;10:46:15;2010147;0;;-999999;46;41071;0;1;1441;42512;1;1;1;2;1;0;1;BlockProcFischi;BlockList;1;100;0;;-999999;32;43976;0;1;1708;45684;1;1;1;1;ProcFischi1;ListBlockFischi;44;1;2;0;0;5;Pr5_B;75;1;op;5;2;14;1;44;1;0;TrialProc;1476;6000;Pr5_B;228;6000;6000;ListFischi1;0;;2;203;366606;16;15;1528;368134;440;1;1528;1;924;598;1088;1;1
TMS_Ibrahim;40;1;"<?xml version=""1.0""?>\n<Clock xmlns:dt=""urn:schemas-microsoft-com:datatypes""><Description dt:dt=""string"">E-Prime Primary Realtime Clock</Description><StartTime><Timestamp dt:dt=""int"">0</Timestamp><DateUtc dt:dt=""string"">2022-09-08T08:46:15Z</DateUtc></StartTime><FrequencyChanges><FrequencyChange><Frequency dt:dt=""r8"">3312851</Frequency><Timestamp dt:dt=""r8"">18561345371</Timestamp><Current dt:dt=""r8"">0</Current><DateUtc dt:dt=""string"">2022-09-08T08:46:15Z</DateUtc></FrequencyChange></FrequencyChanges></Clock>\n";TMS_Ibrahim-40-1;75028;100561;1;;1382130953;2010242;2010242;09/08/2022;08/09/2022 08:46;10:46:15;2010147;0;;-999999;46;41071;0;1;1441;42512;1;1;1;2;1;0;1;BlockProcFischi;BlockList;1;100;0;;-999999;32;43976;0;1;1708;45684;1;1;1;1;ProcFischi1;ListBlockFischi;45;1;2;0;1;5;Pr3_B;75;1;op;5;2;12;1;45;1;0;TrialProc;1109;721;Pr3_B;90;1813;1722;ListFischi1;0;;2;201;373655;18;15;1839;375494;351;1;1839;1;325;580;1488;1;1
TMS_Ibrahim;40;1;"<?xml version=""1.0""?>\n<Clock xmlns:dt=""urn:schemas-microsoft-com:datatypes""><Description dt:dt=""string"">E-Prime Primary Realtime Clock</Description><StartTime><Timestamp dt:dt=""int"">0</Timestamp><DateUtc dt:dt=""string"">2022-09-08T08:46:15Z</DateUtc></StartTime><FrequencyChanges><FrequencyChange><Frequency dt:dt=""r8"">3312851</Frequency><Timestamp dt:dt=""r8"">18561345371</Timestamp><Current dt:dt=""r8"">0</Current><DateUtc dt:dt=""string"">2022-09-08T08:46:15Z</DateUtc></FrequencyChange></FrequencyChanges></Clock>\n";TMS_Ibrahim-40-1;75028;100561;1;;1382130953;2010242;2010242;09/08/2022;08/09/2022 08:46;10:46:15;2010147;0;;-999999;46;41071;0;1;1441;42512;1;1;1;2;1;0;1;BlockProcFischi;BlockList;1;100;0;;-999999;32;43976;0;1;1708;45684;1;1;1;1;ProcFischi1;ListBlockFischi;46;1;1;0;1;3;Po4_B;100;2;op;3;2;40;1;46;2;0;TrialProc;1145;1347;Po4_B;233;1488;1721;ListFischi1;0;;2;203;380680;17;13;1518;382198;318;1;1518;1;691;313;1200;1;1
TMS_Ibrahim;40;1;"<?xml version=""1.0""?>\n<Clock xmlns:dt=""urn:schemas-microsoft-com:datatypes""><Description dt:dt=""string"">E-Prime Primary Realtime Clock</Description><StartTime><Timestamp dt:dt=""int"">0</Timestamp><DateUtc dt:dt=""string"">2022-09-08T08:46:15Z</DateUtc></StartTime><FrequencyChanges><FrequencyChange><Frequency dt:dt=""r8"">3312851</Frequency><Timestamp dt:dt=""r8"">18561345371</Timestamp><Current dt:dt=""r8"">0</Current><DateUtc dt:dt=""string"">2022-09-08T08:46:15Z</DateUtc></FrequencyChange></FrequencyChanges></Clock>\n";TMS_Ibrahim-40-1;75028;100561;1;;1382130953;2010242;2010242;09/08/2022;08/09/2022 08:46;10:46:15;2010147;0;;-999999;46;41071;0;1;1441;42512;1;1;1;2;1;0;1;BlockProcFischi;BlockList;1;100;0;;-999999;32;43976;0;1;1708;45684;1;1;1;1;ProcFischi1;ListBlockFischi;47;1;1;0;0;5;Po4_B;75;4;ug;5;2;56;1;47;4;1;TrialProc;1081;1342;Po4_B;180;1535;1716;ListFischi1;0;;2;201;388337;10;155;2677;391014;325;1;1557;1;548;537;1232;1;1
TMS_Ibrahim;40;1;"<?xml version=""1.0""?>\n<Clock xmlns:dt=""urn:schemas-microsoft-com:datatypes""><Description dt:dt=""string"">E-Prime Primary Realtime Clock</Description><StartTime><Timestamp dt:dt=""int"">0</Timestamp><DateUtc dt:dt=""string"">2022-09-08T08:46:15Z</DateUtc></StartTime><FrequencyChanges><FrequencyChange><Frequency dt:dt=""r8"">3312851</Frequency><Timestamp dt:dt=""r8"">18561345371</Timestamp><Current dt:dt=""r8"">0</Current><DateUtc dt:dt=""string"">2022-09-08T08:46:15Z</DateUtc></FrequencyChange></FrequencyChanges></Clock>\n";TMS_Ibrahim-40-1;75028;100561;1;;1382130953;2010242;2010242;09/08/2022;08/09/2022 08:46;10:46:15;2010147;0;;-999999;46;41071;0;1;1441;42512;1;1;1;2;1;0;1;BlockProcFischi;BlockList;1;100;0;;-999999;32;43976;0;1;1708;45684;1;1;1;1;ProcFischi1;ListBlockFischi;48;1;2;0;0;3;Pr3_B;125;3;ug;3;2;18;1;48;3;1;TrialProc;863;713;Pr3_B;9;1721;1712;ListFischi1;0;;2;203;394883;8;13;1747;396630;387;1;1747;1;307;316;1360;1;1
TMS_Ibrahim;40;1;"<?xml version=""1.0""?>\n<Clock xmlns:dt=""urn:schemas-microsoft-com:datatypes""><Description dt:dt=""string"">E-Prime Primary Realtime Clock</Description><StartTime><Timestamp dt:dt=""int"">0</Timestamp><DateUtc dt:dt=""string"">2022-09-08T08:46:15Z</DateUtc></StartTime><FrequencyChanges><FrequencyChange><Frequency dt:dt=""r8"">3312851</Frequency><Timestamp dt:dt=""r8"">18561345371</Timestamp><Current dt:dt=""r8"">0</Current><DateUtc dt:dt=""string"">2022-09-08T08:46:15Z</DateUtc></FrequencyChange></FrequencyChanges></Clock>\n";TMS_Ibrahim-40-1;75028;100561;1;;1382130953;2010242;2010242;09/08/2022;08/09/2022 08:46;10:46:15;2010147;0;;-999999;46;41071;0;1;1441;42512;1;1;1;2;1;0;1;BlockProcFischi;BlockList;1;100;0;;-999999;32;43976;0;1;1708;45684;1;1;1;1;ProcFischi1;ListBlockFischi;49;1;2;0;1;5;Pr5_B;75;1;op;5;2;9;1;49;1;0;TrialProc;943;675;Pr5_B;140;1416;1276;ListFischi1;0;;2;201;402024;11;15;1437;403461;397;1;1437;1;610;248;1040;1;1
TMS_Ibrahim;40;1;"<?xml version=""1.0""?>\n<Clock xmlns:dt=""urn:schemas-microsoft-com:datatypes""><Description dt:dt=""string"">E-Prime Primary Realtime Clock</Description><StartTime><Timestamp dt:dt=""int"">0</Timestamp><DateUtc dt:dt=""string"">2022-09-08T08:46:15Z</DateUtc></StartTime><FrequencyChanges><FrequencyChange><Frequency dt:dt=""r8"">3312851</Frequency><Timestamp dt:dt=""r8"">18561345371</Timestamp><Current dt:dt=""r8"">0</Current><DateUtc dt:dt=""string"">2022-09-08T08:46:15Z</DateUtc></FrequencyChange></FrequencyChanges></Clock>\n";TMS_Ibrahim-40-1;75028;100561;1;;1382130953;2010242;2010242;09/08/2022;08/09/2022 08:46;10:46:15;2010147;0;;-999999;46;41071;0;1;1441;42512;1;1;1;2;1;0;1;BlockProcFischi;BlockList;1;100;0;;-999999;32;43976;0;1;1708;45684;1;1;1;1;ProcFischi1;ListBlockFischi;50;1;2;0;0;3;Pr2_B;100;3;ug;3;2;22;1;50;3;1;TrialProc;780;719;Pr2_B;221;1474;1253;ListFischi1;0;;2;203;409312;14;13;1493;410805;357;1;1493;1;620;257;1136;1;1
TMS_Ibrahim;40;1;"<?xml version=""1.0""?>\n<Clock xmlns:dt=""urn:schemas-microsoft-com:datatypes""><Description dt:dt=""string"">E-Prime Primary Realtime Clock</Description><StartTime><Timestamp dt:dt=""int"">0</Timestamp><DateUtc dt:dt=""string"">2022-09-08T08:46:15Z</DateUtc></StartTime><FrequencyChanges><FrequencyChange><Frequency dt:dt=""r8"">3312851</Frequency><Timestamp dt:dt=""r8"">18561345371</Timestamp><Current dt:dt=""r8"">0</Current><DateUtc dt:dt=""string"">2022-09-08T08:46:15Z</DateUtc></FrequencyChange></FrequencyChanges></Clock>\n";TMS_Ibrahim-40-1;75028;100561;1;;1382130953;2010242;2010242;09/08/2022;08/09/2022 08:46;10:46:15;2010147;0;;-999999;46;41071;0;1;1441;42512;1;1;1;2;1;0;1;BlockProcFischi;BlockList;1;100;0;;-999999;32;43976;0;1;1708;45684;1;1;1;1;ProcFischi1;ListBlockFischi;51;1;2;0;2;5;Pr4_B;75;1;op;5;2;3;1;51;1;0;TrialProc;815;670;Pr4_B;55;1299;1243;ListFischi1;0;;2;203;416902;8;15;1327;418229;223;1;1327;1;1037;532;1104;1;1
TMS_Ibrahim;40;1;"<?xml version=""1.0""?>\n<Clock xmlns:dt=""urn:schemas-microsoft-com:datatypes""><Description dt:dt=""string"">E-Prime Primary Realtime Clock</Description><StartTime><Timestamp dt:dt=""int"">0</Timestamp><DateUtc dt:dt=""string"">2022-09-08T08:46:15Z</DateUtc></StartTime><FrequencyChanges><FrequencyChange><Frequency dt:dt=""r8"">3312851</Frequency><Timestamp dt:dt=""r8"">18561345371</Timestamp><Current dt:dt=""r8"">0</Current><DateUtc dt:dt=""string"">2022-09-08T08:46:15Z</DateUtc></FrequencyChange></FrequencyChanges></Clock>\n";TMS_Ibrahim-40-1;75028;100561;1;;1382130953;2010242;2010242;09/08/2022;08/09/2022 08:46;10:46:15;2010147;0;;-999999;46;41071;0;1;1441;42512;1;1;1;2;1;0;1;BlockProcFischi;BlockList;1;100;0;;-999999;32;43976;0;1;1708;45684;1;1;1;1;ProcFischi1;ListBlockFischi;52;0;1;1;2;3;Pomod_B;;2;op;5;2;48;1;52;2;0;TrialProc;1601;1318;Pomod_B;189;1488;1677;ListFischi1;0;;2;201;423866;14;155;2987;426853;363;1;1515;1;824;339;1152;1;0
TMS_Ibrahim;40;1;"<?xml version=""1.0""?>\n<Clock xmlns:dt=""urn:schemas-microsoft-com:datatypes""><Description dt:dt=""string"">E-Prime Primary Realtime Clock</Description><StartTime><Timestamp dt:dt=""int"">0</Timestamp><DateUtc dt:dt=""string"">2022-09-08T08:46:15Z</DateUtc></StartTime><FrequencyChanges><FrequencyChange><Frequency dt:dt=""r8"">3312851</Frequency><Timestamp dt:dt=""r8"">18561345371</Timestamp><Current dt:dt=""r8"">0</Current><DateUtc dt:dt=""string"">2022-09-08T08:46:15Z</DateUtc></FrequencyChange></FrequencyChanges></Clock>\n";TMS_Ibrahim-40-1;75028;100561;1;;1382130953;2010242;2010242;09/08/2022;08/09/2022 08:46;10:46:15;2010147;0;;-999999;46;41071;0;1;1441;42512;1;1;1;2;1;0;1;BlockProcFischi;BlockList;1;100;0;;-999999;32;43976;0;1;1708;45684;1;1;1;1;ProcFischi1;ListBlockFischi;53;1;1;0;2;3;Po2_B;100;2;op;3;2;43;1;53;2;0;TrialProc;1099;6000;Po2_B;201;6000;6000;ListFischi1;0;;2;203;429736;9;13;1629;431365;365;1;1629;1;1022;242;1264;1;1
TMS_Ibrahim;40;1;"<?xml version=""1.0""?>\n<Clock xmlns:dt=""urn:schemas-microsoft-com:datatypes""><Description dt:dt=""string"">E-Prime Primary Realtime Clock</Description><StartTime><Timestamp dt:dt=""int"">0</Timestamp><DateUtc dt:dt=""string"">2022-09-08T08:46:15Z</DateUtc></StartTime><FrequencyChanges><FrequencyChange><Frequency dt:dt=""r8"">3312851</Frequency><Timestamp dt:dt=""r8"">18561345371</Timestamp><Current dt:dt=""r8"">0</Current><DateUtc dt:dt=""string"">2022-09-08T08:46:15Z</DateUtc></FrequencyChange></FrequencyChanges></Clock>\n";TMS_Ibrahim-40-1;75028;100561;1;;1382130953;2010242;2010242;09/08/2022;08/09/2022 08:46;10:46:15;2010147;0;;-999999;46;41071;0;1;1441;42512;1;1;1;2;1;0;1;BlockProcFischi;BlockList;1;100;0;;-999999;32;43976;0;1;1708;45684;1;1;1;1;ProcFischi1;ListBlockFischi;54;1;1;0;0;3;Po4_B;125;2;op;3;2;35;1;54;2;0;TrialProc;1165;1341;Po4_B;164;1550;1714;ListFischi1;0;;2;203;437692;10;133;1944;439636;345;1;1576;1;466;496;1231;1;1
TMS_Ibrahim;40;1;"<?xml version=""1.0""?>\n<Clock xmlns:dt=""urn:schemas-microsoft-com:datatypes""><Description dt:dt=""string"">E-Prime Primary Realtime Clock</Description><StartTime><Timestamp dt:dt=""int"">0</Timestamp><DateUtc dt:dt=""string"">2022-09-08T08:46:15Z</DateUtc></StartTime><FrequencyChanges><FrequencyChange><Frequency dt:dt=""r8"">3312851</Frequency><Timestamp dt:dt=""r8"">18561345371</Timestamp><Current dt:dt=""r8"">0</Current><DateUtc dt:dt=""string"">2022-09-08T08:46:15Z</DateUtc></FrequencyChange></FrequencyChanges></Clock>\n";TMS_Ibrahim-40-1;75028;100561;1;;1382130953;2010242;2010242;09/08/2022;08/09/2022 08:46;10:46:15;2010147;0;;-999999;46;41071;0;1;1441;42512;1;1;1;2;1;0;1;BlockProcFischi;BlockList;1;100;0;;-999999;32;43976;0;1;1708;45684;1;1;1;1;ProcFischi1;ListBlockFischi;55;1;2;0;2;5;Pr5_B;75;1;op;5;2;4;1;55;1;0;TrialProc;912;672;Pr5_B;111;1383;1272;ListFischi1;0;;2;203;444970;9;15;1418;446388;362;1;1418;1;1096;468;1056;1;1
TMS_Ibrahim;40;1;"<?xml version=""1.0""?>\n<Clock xmlns:dt=""urn:schemas-microsoft-com:datatypes""><Description dt:dt=""string"">E-Prime Primary Realtime Clock</Description><StartTime><Timestamp dt:dt=""int"">0</Timestamp><DateUtc dt:dt=""string"">2022-09-08T08:46:15Z</DateUtc></StartTime><FrequencyChanges><FrequencyChange><Frequency dt:dt=""r8"">3312851</Frequency><Timestamp dt:dt=""r8"">18561345371</Timestamp><Current dt:dt=""r8"">0</Current><DateUtc dt:dt=""string"">2022-09-08T08:46:15Z</DateUtc></FrequencyChange></FrequencyChanges></Clock>\n";TMS_Ibrahim-40-1;75028;100561;1;;1382130953;2010242;2010242;09/08/2022;08/09/2022 08:46;10:46:15;2010147;0;;-999999;46;41071;0;1;1441;42512;1;1;1;2;1;0;1;BlockProcFischi;BlockList;1;100;0;;-999999;32;43976;0;1;1708;45684;1;1;1;1;ProcFischi1;ListBlockFischi;56;1;2;0;1;3;Pr4_B;100;3;ug;3;2;19;1;56;3;1;TrialProc;1118;683;Pr4_B;306;1561;1255;ListFischi1;0;;2;201;452199;17;13;1581;453780;413;1;1581;1;577;364;1168;1;1
TMS_Ibrahim;40;1;"<?xml version=""1.0""?>\n<Clock xmlns:dt=""urn:schemas-microsoft-com:datatypes""><Description dt:dt=""string"">E-Prime Primary Realtime Clock</Description><StartTime><Timestamp dt:dt=""int"">0</Timestamp><DateUtc dt:dt=""string"">2022-09-08T08:46:15Z</DateUtc></StartTime><FrequencyChanges><FrequencyChange><Frequency dt:dt=""r8"">3312851</Frequency><Timestamp dt:dt=""r8"">18561345371</Timestamp><Current dt:dt=""r8"">0</Current><DateUtc dt:dt=""string"">2022-09-08T08:46:15Z</DateUtc></FrequencyChange></FrequencyChanges></Clock>\n";TMS_Ibrahim-40-1;75028;100561;1;;1382130953;2010242;2010242;09/08/2022;08/09/2022 08:46;10:46:15;2010147;0;;-999999;46;41071;0;1;1441;42512;1;1;1;2;1;0;1;BlockProcFischi;BlockList;1;100;0;;-999999;32;43976;0;1;1708;45684;1;1;1;1;ProcFischi1;ListBlockFischi;57;1;1;0;1;5;Po5_B;75;4;ug;5;2;62;1;57;4;1;TrialProc;883;978;Po5_B;43;1514;1471;ListFischi1;0;;2;203;459326;7;155;2326;461652;281;1;1542;1;707;557;1261;1;1
TMS_Ibrahim;40;1;"<?xml version=""1.0""?>\n<Clock xmlns:dt=""urn:schemas-microsoft-com:datatypes""><Description dt:dt=""string"">E-Prime Primary Realtime Clock</Description><StartTime><Timestamp dt:dt=""int"">0</Timestamp><DateUtc dt:dt=""string"">2022-09-08T08:46:15Z</DateUtc></StartTime><FrequencyChanges><FrequencyChange><Frequency dt:dt=""r8"">3312851</Frequency><Timestamp dt:dt=""r8"">18561345371</Timestamp><Current dt:dt=""r8"">0</Current><DateUtc dt:dt=""string"">2022-09-08T08:46:15Z</DateUtc></FrequencyChange></FrequencyChanges></Clock>\n";TMS_Ibrahim-40-1;75028;100561;1;;1382130953;2010242;2010242;09/08/2022;08/09/2022 08:46;10:46:15;2010147;0;;-999999;46;41071;0;1;1441;42512;1;1;1;2;1;0;1;BlockProcFischi;BlockList;1;100;0;;-999999;32;43976;0;1;1708;45684;1;1;1;1;ProcFischi1;ListBlockFischi;58;0;2;0;2;3;Pr3_B;;3;ug;5;2;23;1;58;3;1;TrialProc;1635;716;Pr3_B;70;1783;1714;ListFischi1;0;;2;201;465987;10;15;1809;467796;289;1;1809;1;302;204;1520;1;0
TMS_Ibrahim;40;1;"<?xml version=""1.0""?>\n<Clock xmlns:dt=""urn:schemas-microsoft-com:datatypes""><Description dt:dt=""string"">E-Prime Primary Realtime Clock</Description><StartTime><Timestamp dt:dt=""int"">0</Timestamp><DateUtc dt:dt=""string"">2022-09-08T08:46:15Z</DateUtc></StartTime><FrequencyChanges><FrequencyChange><Frequency dt:dt=""r8"">3312851</Frequency><Timestamp dt:dt=""r8"">18561345371</Timestamp><Current dt:dt=""r8"">0</Current><DateUtc dt:dt=""string"">2022-09-08T08:46:15Z</DateUtc></FrequencyChange></FrequencyChanges></Clock>\n";TMS_Ibrahim-40-1;75028;100561;1;;1382130953;2010242;2010242;09/08/2022;08/09/2022 08:46;10:46:15;2010147;0;;-999999;46;41071;0;1;1441;42512;1;1;1;2;1;0;1;BlockProcFischi;BlockList;1;100;0;;-999999;32;43976;0;1;1708;45684;1;1;1;1;ProcFischi1;ListBlockFischi;59;1;1;1;1;3;Pomod_B;125;2;op;3;2;47;1;59;2;0;TrialProc;968;1316;Pomod_B;189;1865;1676;ListFischi1;0;;2;203;473395;13;13;1889;475284;529;1;1889;1;1207;222;1360;1;1
TMS_Ibrahim;40;1;"<?xml version=""1.0""?>\n<Clock xmlns:dt=""urn:schemas-microsoft-com:datatypes""><Description dt:dt=""string"">E-Prime Primary Realtime Clock</Description><StartTime><Timestamp dt:dt=""int"">0</Timestamp><DateUtc dt:dt=""string"">2022-09-08T08:46:15Z</DateUtc></StartTime><FrequencyChanges><FrequencyChange><Frequency dt:dt=""r8"">3312851</Frequency><Timestamp dt:dt=""r8"">18561345371</Timestamp><Current dt:dt=""r8"">0</Current><DateUtc dt:dt=""string"">2022-09-08T08:46:15Z</DateUtc></FrequencyChange></FrequencyChanges></Clock>\n";TMS_Ibrahim-40-1;75028;100561;1;;1382130953;2010242;2010242;09/08/2022;08/09/2022 08:46;10:46:15;2010147;0;;-999999;46;41071;0;1;1441;42512;1;1;1;2;1;0;1;BlockProcFischi;BlockList;1;100;0;;-999999;32;43976;0;1;1708;45684;1;1;1;1;ProcFischi1;ListBlockFischi;60;1;1;0;0;5;Po8_B;50;4;ug;5;2;53;1;60;4;1;TrialProc;701;1245;Po8_B;105;1683;1579;ListFischi1;0;;2;201;480783;9;15;1716;482499;388;1;1716;1;680;472;1328;1;1
TMS_Ibrahim;40;1;"<?xml version=""1.0""?>\n<Clock xmlns:dt=""urn:schemas-microsoft-com:datatypes""><Description dt:dt=""string"">E-Prime Primary Realtime Clock</Description><StartTime><Timestamp dt:dt=""int"">0</Timestamp><DateUtc dt:dt=""string"">2022-09-08T08:46:15Z</DateUtc></StartTime><FrequencyChanges><FrequencyChange><Frequency dt:dt=""r8"">3312851</Frequency><Timestamp dt:dt=""r8"">18561345371</Timestamp><Current dt:dt=""r8"">0</Current><DateUtc dt:dt=""string"">2022-09-08T08:46:15Z</DateUtc></FrequencyChange></FrequencyChanges></Clock>\n";TMS_Ibrahim-40-1;75028;100561;1;;1382130953;2010242;2010242;09/08/2022;08/09/2022 08:46;10:46:15;2010147;0;;-999999;46;41071;0;1;1441;42512;1;1;1;2;1;0;1;BlockProcFischi;BlockList;1;100;0;;-999999;32;43976;0;1;1708;45684;1;1;1;1;ProcFischi1;ListBlockFischi;61;1;2;0;2;3;Pr3_B;100;3;ug;3;2;28;1;61;3;1;TrialProc;1215;713;Pr3_B;186;1899;1713;ListFischi1;0;;2;203;488074;8;133;2025;490099;537;1;1929;1;406;206;1392;1;1
TMS_Ibrahim;40;1;"<?xml version=""1.0""?>\n<Clock xmlns:dt=""urn:schemas-microsoft-com:datatypes""><Description dt:dt=""string"">E-Prime Primary Realtime Clock</Description><StartTime><Timestamp dt:dt=""int"">0</Timestamp><DateUtc dt:dt=""string"">2022-09-08T08:46:15Z</DateUtc></StartTime><FrequencyChanges><FrequencyChange><Frequency dt:dt=""r8"">3312851</Frequency><Timestamp dt:dt=""r8"">18561345371</Timestamp><Current dt:dt=""r8"">0</Current><DateUtc dt:dt=""string"">2022-09-08T08:46:15Z</DateUtc></FrequencyChange></FrequencyChanges></Clock>\n";TMS_Ibrahim-40-1;75028;100561;1;;1382130953;2010242;2010242;09/08/2022;08/09/2022 08:46;10:46:15;2010147;0;;-999999;46;41071;0;1;1441;42512;1;1;1;2;1;0;1;BlockProcFischi;BlockList;1;100;0;;-999999;32;43976;0;1;1708;45684;1;1;1;1;ProcFischi1;ListBlockFischi;62;1;2;0;0;3;Pr8_B;125;3;ug;3;2;26;1;62;3;1;TrialProc;2211;716;Pr8_B;76;1817;1742;ListFischi1;0;;2;201;495108;12;13;1839;496947;351;1;1839;1;449;308;1488;1;1
TMS_Ibrahim;40;1;"<?xml version=""1.0""?>\n<Clock xmlns:dt=""urn:schemas-microsoft-com:datatypes""><Description dt:dt=""string"">E-Prime Primary Realtime Clock</Description><StartTime><Timestamp dt:dt=""int"">0</Timestamp><DateUtc dt:dt=""string"">2022-09-08T08:46:15Z</DateUtc></StartTime><FrequencyChanges><FrequencyChange><Frequency dt:dt=""r8"">3312851</Frequency><Timestamp dt:dt=""r8"">18561345371</Timestamp><Current dt:dt=""r8"">0</Current><DateUtc dt:dt=""string"">2022-09-08T08:46:15Z</DateUtc></FrequencyChange></FrequencyChanges></Clock>\n";TMS_Ibrahim-40-1;75028;100561;1;;1382130953;2010242;2010242;09/08/2022;08/09/2022 08:46;10:46:15;2010147;0;;-999999;46;41071;0;1;1441;42512;1;1;1;2;1;0;1;BlockProcFischi;BlockList;1;100;0;;-999999;32;43976;0;1;1708;45684;1;1;1;1;ProcFischi1;ListBlockFischi;63;1;2;0;0;3;Pr4_B;100;3;ug;3;2;29;1;63;3;1;TrialProc;1072;671;Pr4_B;166;1412;1246;ListFischi1;0;;2;203;502282;8;133;2425;504707;283;1;1433;1;482;490;1150;1;1
TMS_Ibrahim;40;1;"<?xml version=""1.0""?>\n<Clock xmlns:dt=""urn:schemas-microsoft-com:datatypes""><Description dt:dt=""string"">E-Prime Primary Realtime Clock</Description><StartTime><Timestamp dt:dt=""int"">0</Timestamp><DateUtc dt:dt=""string"">2022-09-08T08:46:15Z</DateUtc></StartTime><FrequencyChanges><FrequencyChange><Frequency dt:dt=""r8"">3312851</Frequency><Timestamp dt:dt=""r8"">18561345371</Timestamp><Current dt:dt=""r8"">0</Current><DateUtc dt:dt=""string"">2022-09-08T08:46:15Z</DateUtc></FrequencyChange></FrequencyChanges></Clock>\n";TMS_Ibrahim-40-1;75028;100561;1;;1382130953;2010242;2010242;09/08/2022;08/09/2022 08:46;10:46:15;2010147;0;;-999999;46;41071;0;1;1441;42512;1;1;1;2;1;0;1;BlockProcFischi;BlockList;1;100;0;;-999999;32;43976;0;1;1708;45684;1;1;1;1;ProcFischi1;ListBlockFischi;64;1;2;0;0;5;Pr3_B;100;1;op;5;2;7;1;64;1;0;TrialProc;1055;722;Pr3_B;8;1714;1721;ListFischi1;0;;2;201;508645;16;155;1998;510643;526;1;1742;1;466;264;1216;1;1
TMS_Ibrahim;40;3;"<?xml version=""1.0""?>\n<Clock xmlns:dt=""urn:schemas-microsoft-com:datatypes""><Description dt:dt=""string"">E-Prime Primary Realtime Clock</Description><StartTime><Timestamp dt:dt=""int"">0</Timestamp><DateUtc dt:dt=""string"">2022-09-08T09:52:29Z</DateUtc></StartTime><FrequencyChanges><FrequencyChange><Frequency dt:dt=""r8"">3312851</Frequency><Timestamp dt:dt=""r8"">31726954285</Timestamp><Current dt:dt=""r8"">0</Current><DateUtc dt:dt=""string"">2022-09-08T09:52:29Z</DateUtc></FrequencyChange></FrequencyChanges></Clock>\n";TMS_Ibrahim-40-3;75029;100561;1;;1662856477;2010242;2010242;09/08/2022;08/09/2022 09:52;11:52:30;2010147;0;;-999999;24;14591;0;1;1314;15905;1;1;1;2;1;0;1;BlockProcFischi;BlockList;1;50;0;;-999999;13;17271;0;1;546;17817;1;1;1;1;ProcFischi1;ListBlockFischi;1;1;2;0;0;5;Pr5_B;250;1;op;5;2;14;1;1;1;0;TrialProc;2408;706;Pr5_B;236;1543;1307;ListFischi1;0;;5;210;22481;33;155;2223;24704;560;1;1568;1;978;289;1008;1;1
TMS_Ibrahim;40;3;"<?xml version=""1.0""?>\n<Clock xmlns:dt=""urn:schemas-microsoft-com:datatypes""><Description dt:dt=""string"">E-Prime Primary Realtime Clock</Description><StartTime><Timestamp dt:dt=""int"">0</Timestamp><DateUtc dt:dt=""string"">2022-09-08T09:52:29Z</DateUtc></StartTime><FrequencyChanges><FrequencyChange><Frequency dt:dt=""r8"">3312851</Frequency><Timestamp dt:dt=""r8"">31726954285</Timestamp><Current dt:dt=""r8"">0</Current><DateUtc dt:dt=""string"">2022-09-08T09:52:29Z</DateUtc></FrequencyChange></FrequencyChanges></Clock>\n";TMS_Ibrahim-40-3;75029;100561;1;;1662856477;2010242;2010242;09/08/2022;08/09/2022 09:52;11:52:30;2010147;0;;-999999;24;14591;0;1;1314;15905;1;1;1;2;1;0;1;BlockProcFischi;BlockList;1;50;0;;-999999;13;17271;0;1;546;17817;1;1;1;1;ProcFischi1;ListBlockFischi;2;1;2;0;0;3;Pr5_B;250;3;ug;3;2;25;1;2;3;1;TrialProc;948;677;Pr5_B;279;1555;1276;ListFischi1;0;;1;201;28780;12;13;1588;30368;372;1;1588;1;795;429;1216;1;1
TMS_Ibrahim;40;3;"<?xml version=""1.0""?>\n<Clock xmlns:dt=""urn:schemas-microsoft-com:datatypes""><Description dt:dt=""string"">E-Prime Primary Realtime Clock</Description><StartTime><Timestamp dt:dt=""int"">0</Timestamp><DateUtc dt:dt=""string"">2022-09-08T09:52:29Z</DateUtc></StartTime><FrequencyChanges><FrequencyChange><Frequency dt:dt=""r8"">3312851</Frequency><Timestamp dt:dt=""r8"">31726954285</Timestamp><Current dt:dt=""r8"">0</Current><DateUtc dt:dt=""string"">2022-09-08T09:52:29Z</DateUtc></FrequencyChange></FrequencyChanges></Clock>\n";TMS_Ibrahim-40-3;75029;100561;1;;1662856477;2010242;2010242;09/08/2022;08/09/2022 09:52;11:52:30;2010147;0;;-999999;24;14591;0;1;1314;15905;1;1;1;2;1;0;1;BlockProcFischi;BlockList;1;50;0;;-999999;13;17271;0;1;546;17817;1;1;1;1;ProcFischi1;ListBlockFischi;3;1;1;0;0;3;Po5_B;250;2;op;3;2;41;1;3;2;0;TrialProc;1487;983;Po5_B;1;1476;1477;ListFischi1;0;;2;203;35856;13;133;2256;38112;304;1;1504;1;407;427;1200;1;1
TMS_Ibrahim;40;3;"<?xml version=""1.0""?>\n<Clock xmlns:dt=""urn:schemas-microsoft-com:datatypes""><Description dt:dt=""string"">E-Prime Primary Realtime Clock</Description><StartTime><Timestamp dt:dt=""int"">0</Timestamp><DateUtc dt:dt=""string"">2022-09-08T09:52:29Z</DateUtc></StartTime><FrequencyChanges><FrequencyChange><Frequency dt:dt=""r8"">3312851</Frequency><Timestamp dt:dt=""r8"">31726954285</Timestamp><Current dt:dt=""r8"">0</Current><DateUtc dt:dt=""string"">2022-09-08T09:52:29Z</DateUtc></FrequencyChange></FrequencyChanges></Clock>\n";TMS_Ibrahim-40-3;75029;100561;1;;1662856477;2010242;2010242;09/08/2022;08/09/2022 09:52;11:52:30;2010147;0;;-999999;24;14591;0;1;1314;15905;1;1;1;2;1;0;1;BlockProcFischi;BlockList;1;50;0;;-999999;13;17271;0;1;546;17817;1;1;1;1;ProcFischi1;ListBlockFischi;4;1;1;0;0;3;Po3_B;225;2;op;3;2;34;1;4;2;0;TrialProc;938;1315;Po3_B;14;1567;1581;ListFischi1;0;;2;201;42456;11;13;1592;44048;232;1;1592;1;749;318;1360;1;1
TMS_Ibrahim;40;3;"<?xml version=""1.0""?>\n<Clock xmlns:dt=""urn:schemas-microsoft-com:datatypes""><Description dt:dt=""string"">E-Prime Primary Realtime Clock</Description><StartTime><Timestamp dt:dt=""int"">0</Timestamp><DateUtc dt:dt=""string"">2022-09-08T09:52:29Z</DateUtc></StartTime><FrequencyChanges><FrequencyChange><Frequency dt:dt=""r8"">3312851</Frequency><Timestamp dt:dt=""r8"">31726954285</Timestamp><Current dt:dt=""r8"">0</Current><DateUtc dt:dt=""string"">2022-09-08T09:52:29Z</DateUtc></FrequencyChange></FrequencyChanges></Clock>\n";TMS_Ibrahim-40-3;75029;100561;1;;1662856477;2010242;2010242;09/08/2022;08/09/2022 09:52;11:52:30;2010147;0;;-999999;24;14591;0;1;1314;15905;1;1;1;2;1;0;1;BlockProcFischi;BlockList;1;50;0;;-999999;13;17271;0;1;546;17817;1;1;1;1;ProcFischi1;ListBlockFischi;5;1;2;0;0;5;Pr5_B;250;1;op;5;2;4;1;5;1;0;TrialProc;1068;676;Pr5_B;65;1339;1275;ListFischi1;0;;2;203;49918;12;15;1362;51280;146;1;1362;1;1023;563;1216;1;1
TMS_Ibrahim;40;3;"<?xml version=""1.0""?>\n<Clock xmlns:dt=""urn:schemas-microsoft-com:datatypes""><Description dt:dt=""string"">E-Prime Primary Realtime Clock</Description><StartTime><Timestamp dt:dt=""int"">0</Timestamp><DateUtc dt:dt=""string"">2022-09-08T09:52:29Z</DateUtc></StartTime><FrequencyChanges><FrequencyChange><Frequency dt:dt=""r8"">3312851</Frequency><Timestamp dt:dt=""r8"">31726954285</Timestamp><Current dt:dt=""r8"">0</Current><DateUtc dt:dt=""string"">2022-09-08T09:52:29Z</DateUtc></FrequencyChange></FrequencyChanges></Clock>\n";TMS_Ibrahim-40-3;75029;100561;1;;1662856477;2010242;2010242;09/08/2022;08/09/2022 09:52;11:52:30;2010147;0;;-999999;24;14591;0;1;1314;15905;1;1;1;2;1;0;1;BlockProcFischi;BlockList;1;50;0;;-999999;13;17271;0;1;546;17817;1;1;1;1;ProcFischi1;ListBlockFischi;6;1;2;0;0;5;Pr2_B;225;1;op;5;2;11;1;6;1;0;TrialProc;1160;719;Pr2_B;15;1268;1252;ListFischi1;0;;2;201;57180;14;15;1300;58480;436;1;1300;1;983;280;864;1;1
TMS_Ibrahim;40;3;"<?xml version=""1.0""?>\n<Clock xmlns:dt=""urn:schemas-microsoft-com:datatypes""><Description dt:dt=""string"">E-Prime Primary Realtime Clock</Description><StartTime><Timestamp dt:dt=""int"">0</Timestamp><DateUtc dt:dt=""string"">2022-09-08T09:52:29Z</DateUtc></StartTime><FrequencyChanges><FrequencyChange><Frequency dt:dt=""r8"">3312851</Frequency><Timestamp dt:dt=""r8"">31726954285</Timestamp><Current dt:dt=""r8"">0</Current><DateUtc dt:dt=""string"">2022-09-08T09:52:29Z</DateUtc></FrequencyChange></FrequencyChanges></Clock>\n";TMS_Ibrahim-40-3;75029;100561;1;;1662856477;2010242;2010242;09/08/2022;08/09/2022 09:52;11:52:30;2010147;0;;-999999;24;14591;0;1;1314;15905;1;1;1;2;1;0;1;BlockProcFischi;BlockList;1;50;0;;-999999;13;17271;0;1;546;17817;1;1;1;1;ProcFischi1;ListBlockFischi;7;1;2;0;1;3;Pr4_B;250;3;ug;3;2;24;1;7;3;1;TrialProc;970;672;Pr4_B;113;1358;1246;ListFischi1;0;;2;203;64569;9;13;1382;65951;246;1;1382;1;783;334;1136;1;1
TMS_Ibrahim;40;3;"<?xml version=""1.0""?>\n<Clock xmlns:dt=""urn:schemas-microsoft-com:datatypes""><Description dt:dt=""string"">E-Prime Primary Realtime Clock</Description><StartTime><Timestamp dt:dt=""int"">0</Timestamp><DateUtc dt:dt=""string"">2022-09-08T09:52:29Z</DateUtc></StartTime><FrequencyChanges><FrequencyChange><Frequency dt:dt=""r8"">3312851</Frequency><Timestamp dt:dt=""r8"">31726954285</Timestamp><Current dt:dt=""r8"">0</Current><DateUtc dt:dt=""string"">2022-09-08T09:52:29Z</DateUtc></FrequencyChange></FrequencyChanges></Clock>\n";TMS_Ibrahim-40-3;75029;100561;1;;1662856477;2010242;2010242;09/08/2022;08/09/2022 09:52;11:52:30;2010147;0;;-999999;24;14591;0;1;1314;15905;1;1;1;2;1;0;1;BlockProcFischi;BlockList;1;50;0;;-999999;13;17271;0;1;546;17817;1;1;1;1;ProcFischi1;ListBlockFischi;8;1;1;1;0;5;Pomod_B;250;4;ug;5;2;63;1;8;4;1;TrialProc;1105;1316;Pomod_B;84;1760;1675;ListFischi1;0;;2;203;71790;12;1555;2721;74511;257;1;1793;1;823;503;1536;1;1
TMS_Ibrahim;40;3;"<?xml version=""1.0""?>\n<Clock xmlns:dt=""urn:schemas-microsoft-com:datatypes""><Description dt:dt=""string"">E-Prime Primary Realtime Clock</Description><StartTime><Timestamp dt:dt=""int"">0</Timestamp><DateUtc dt:dt=""string"">2022-09-08T09:52:29Z</DateUtc></StartTime><FrequencyChanges><FrequencyChange><Frequency dt:dt=""r8"">3312851</Frequency><Timestamp dt:dt=""r8"">31726954285</Timestamp><Current dt:dt=""r8"">0</Current><DateUtc dt:dt=""string"">2022-09-08T09:52:29Z</DateUtc></FrequencyChange></FrequencyChanges></Clock>\n";TMS_Ibrahim-40-3;75029;100561;1;;1662856477;2010242;2010242;09/08/2022;08/09/2022 09:52;11:52:30;2010147;0;;-999999;24;14591;0;1;1314;15905;1;1;1;2;1;0;1;BlockProcFischi;BlockList;1;50;0;;-999999;13;17271;0;1;546;17817;1;1;1;1;ProcFischi1;ListBlockFischi;9;1;1;0;0;5;Po3_B;225;4;ug;5;2;55;1;9;4;1;TrialProc;1623;1316;Po3_B;74;1508;1581;ListFischi1;0;;2;201;78016;10;15;1535;79551;175;1;1535;1;431;423;1360;1;1
TMS_Ibrahim;40;3;"<?xml version=""1.0""?>\n<Clock xmlns:dt=""urn:schemas-microsoft-com:datatypes""><Description dt:dt=""string"">E-Prime Primary Realtime Clock</Description><StartTime><Timestamp dt:dt=""int"">0</Timestamp><DateUtc dt:dt=""string"">2022-09-08T09:52:29Z</DateUtc></StartTime><FrequencyChanges><FrequencyChange><Frequency dt:dt=""r8"">3312851</Frequency><Timestamp dt:dt=""r8"">31726954285</Timestamp><Current dt:dt=""r8"">0</Current><DateUtc dt:dt=""string"">2022-09-08T09:52:29Z</DateUtc></FrequencyChange></FrequencyChanges></Clock>\n";TMS_Ibrahim-40-3;75029;100561;1;;1662856477;2010242;2010242;09/08/2022;08/09/2022 09:52;11:52:30;2010147;0;;-999999;24;14591;0;1;1314;15905;1;1;1;2;1;0;1;BlockProcFischi;BlockList;1;50;0;;-999999;13;17271;0;1;546;17817;1;1;1;1;ProcFischi1;ListBlockFischi;10;1;2;1;0;3;Prmod_B;225;3;ug;3;2;32;1;10;3;1;TrialProc;1711;1314;Prmod_B;23;1670;1647;ListFischi1;0;;2;203;85294;9;13;1697;86991;369;1;1697;1;482;387;1328;1;1
TMS_Ibrahim;40;3;"<?xml version=""1.0""?>\n<Clock xmlns:dt=""urn:schemas-microsoft-com:datatypes""><Description dt:dt=""string"">E-Prime Primary Realtime Clock</Description><StartTime><Timestamp dt:dt=""int"">0</Timestamp><DateUtc dt:dt=""string"">2022-09-08T09:52:29Z</DateUtc></StartTime><FrequencyChanges><FrequencyChange><Frequency dt:dt=""r8"">3312851</Frequency><Timestamp dt:dt=""r8"">31726954285</Timestamp><Current dt:dt=""r8"">0</Current><DateUtc dt:dt=""string"">2022-09-08T09:52:29Z</DateUtc></FrequencyChange></FrequencyChanges></Clock>\n";TMS_Ibrahim-40-3;75029;100561;1;;1662856477;2010242;2010242;09/08/2022;08/09/2022 09:52;11:52:30;2010147;0;;-999999;24;14591;0;1;1314;15905;1;1;1;2;1;0;1;BlockProcFischi;BlockList;1;50;0;;-999999;13;17271;0;1;546;17817;1;1;1;1;ProcFischi1;ListBlockFischi;11;1;2;0;0;3;Pr8_B;200;3;ug;3;2;26;1;11;3;1;TrialProc;1965;716;Pr8_B;362;2105;1742;ListFischi1;0;;2;203;92688;13;13;2127;94815;447;1;2127;1;687;562;1680;1;1
TMS_Ibrahim;40;3;"<?xml version=""1.0""?>\n<Clock xmlns:dt=""urn:schemas-microsoft-com:datatypes""><Description dt:dt=""string"">E-Prime Primary Realtime Clock</Description><StartTime><Timestamp dt:dt=""int"">0</Timestamp><DateUtc dt:dt=""string"">2022-09-08T09:52:29Z</DateUtc></StartTime><FrequencyChanges><FrequencyChange><Frequency dt:dt=""r8"">3312851</Frequency><Timestamp dt:dt=""r8"">31726954285</Timestamp><Current dt:dt=""r8"">0</Current><DateUtc dt:dt=""string"">2022-09-08T09:52:29Z</DateUtc></FrequencyChange></FrequencyChanges></Clock>\n";TMS_Ibrahim-40-3;75029;100561;1;;1662856477;2010242;2010242;09/08/2022;08/09/2022 09:52;11:52:30;2010147;0;;-999999;24;14591;0;1;1314;15905;1;1;1;2;1;0;1;BlockProcFischi;BlockList;1;50;0;;-999999;13;17271;0;1;546;17817;1;1;1;1;ProcFischi1;ListBlockFischi;12;0;2;1;0;5;Prmod_B;;1;op;3;2;16;1;12;1;0;TrialProc;1661;1318;Prmod_B;38;1689;1650;ListFischi1;0;;2;201;99646;12;13;1712;101358;323;1;1712;1;455;556;1389;1;0
TMS_Ibrahim;40;3;"<?xml version=""1.0""?>\n<Clock xmlns:dt=""urn:schemas-microsoft-com:datatypes""><Description dt:dt=""string"">E-Prime Primary Realtime Clock</Description><StartTime><Timestamp dt:dt=""int"">0</Timestamp><DateUtc dt:dt=""string"">2022-09-08T09:52:29Z</DateUtc></StartTime><FrequencyChanges><FrequencyChange><Frequency dt:dt=""r8"">3312851</Frequency><Timestamp dt:dt=""r8"">31726954285</Timestamp><Current dt:dt=""r8"">0</Current><DateUtc dt:dt=""string"">2022-09-08T09:52:29Z</DateUtc></FrequencyChange></FrequencyChanges></Clock>\n";TMS_Ibrahim-40-3;75029;100561;1;;1662856477;2010242;2010242;09/08/2022;08/09/2022 09:52;11:52:30;2010147;0;;-999999;24;14591;0;1;1314;15905;1;1;1;2;1;0;1;BlockProcFischi;BlockList;1;50;0;;-999999;13;17271;0;1;546;17817;1;1;1;1;ProcFischi1;ListBlockFischi;13;1;1;0;0;3;Po8_B;200;2;op;3;2;37;1;13;2;0;TrialProc;1344;1251;Po8_B;281;1865;1585;ListFischi1;0;;2;203;107095;13;133;2039;109134;407;1;1895;1;659;243;1488;1;1
TMS_Ibrahim;40;3;"<?xml version=""1.0""?>\n<Clock xmlns:dt=""urn:schemas-microsoft-com:datatypes""><Description dt:dt=""string"">E-Prime Primary Realtime Clock</Description><StartTime><Timestamp dt:dt=""int"">0</Timestamp><DateUtc dt:dt=""string"">2022-09-08T09:52:29Z</DateUtc></StartTime><FrequencyChanges><FrequencyChange><Frequency dt:dt=""r8"">3312851</Frequency><Timestamp dt:dt=""r8"">31726954285</Timestamp><Current dt:dt=""r8"">0</Current><DateUtc dt:dt=""string"">2022-09-08T09:52:29Z</DateUtc></FrequencyChange></FrequencyChanges></Clock>\n";TMS_Ibrahim-40-3;75029;100561;1;;1662856477;2010242;2010242;09/08/2022;08/09/2022 09:52;11:52:30;2010147;0;;-999999;24;14591;0;1;1314;15905;1;1;1;2;1;0;1;BlockProcFischi;BlockList;1;50;0;;-999999;13;17271;0;1;546;17817;1;1;1;1;ProcFischi1;ListBlockFischi;14;1;1;0;0;5;Po4_B;200;4;ug;5;2;61;1;14;4;1;TrialProc;811;1341;Po4_B;123;1590;1713;ListFischi1;0;;2;201;114002;10;15;1612;115614;332;1;1612;1;434;249;1280;1;1
TMS_Ibrahim;40;3;"<?xml version=""1.0""?>\n<Clock xmlns:dt=""urn:schemas-microsoft-com:datatypes""><Description dt:dt=""string"">E-Prime Primary Realtime Clock</Description><StartTime><Timestamp dt:dt=""int"">0</Timestamp><DateUtc dt:dt=""string"">2022-09-08T09:52:29Z</DateUtc></StartTime><FrequencyChanges><FrequencyChange><Frequency dt:dt=""r8"">3312851</Frequency><Timestamp dt:dt=""r8"">31726954285</Timestamp><Current dt:dt=""r8"">0</Current><DateUtc dt:dt=""string"">2022-09-08T09:52:29Z</DateUtc></FrequencyChange></FrequencyChanges></Clock>\n";TMS_Ibrahim-40-3;75029;100561;1;;1662856477;2010242;2010242;09/08/2022;08/09/2022 09:52;11:52:30;2010147;0;;-999999;24;14591;0;1;1314;15905;1;1;1;2;1;0;1;BlockProcFischi;BlockList;1;50;0;;-999999;13;17271;0;1;546;17817;1;1;1;1;ProcFischi1;ListBlockFischi;15;1;1;0;0;5;Po5_B;175;4;ug;5;2;62;1;15;4;1;TrialProc;987;983;Po5_B;82;1557;1476;ListFischi1;0;;2;203;121584;12;1555;2798;124382;350;1;1582;1;593;446;1232;1;1
TMS_Ibrahim;40;3;"<?xml version=""1.0""?>\n<Clock xmlns:dt=""urn:schemas-microsoft-com:datatypes""><Description dt:dt=""string"">E-Prime Primary Realtime Clock</Description><StartTime><Timestamp dt:dt=""int"">0</Timestamp><DateUtc dt:dt=""string"">2022-09-08T09:52:29Z</DateUtc></StartTime><FrequencyChanges><FrequencyChange><Frequency dt:dt=""r8"">3312851</Frequency><Timestamp dt:dt=""r8"">31726954285</Timestamp><Current dt:dt=""r8"">0</Current><DateUtc dt:dt=""string"">2022-09-08T09:52:29Z</DateUtc></FrequencyChange></FrequencyChanges></Clock>\n";TMS_Ibrahim-40-3;75029;100561;1;;1662856477;2010242;2010242;09/08/2022;08/09/2022 09:52;11:52:30;2010147;0;;-999999;24;14591;0;1;1314;15905;1;1;1;2;1;0;1;BlockProcFischi;BlockList;1;50;0;;-999999;13;17271;0;1;546;17817;1;1;1;1;ProcFischi1;ListBlockFischi;16;1;2;0;1;3;Pr3_B;200;3;ug;3;2;23;1;16;3;1;TrialProc;1635;724;Pr3_B;12;1711;1724;ListFischi1;0;;2;201;127629;18;13;1745;129374;417;1;1745;1;452;268;1328;1;1
TMS_Ibrahim;40;3;"<?xml version=""1.0""?>\n<Clock xmlns:dt=""urn:schemas-microsoft-com:datatypes""><Description dt:dt=""string"">E-Prime Primary Realtime Clock</Description><StartTime><Timestamp dt:dt=""int"">0</Timestamp><DateUtc dt:dt=""string"">2022-09-08T09:52:29Z</DateUtc></StartTime><FrequencyChanges><FrequencyChange><Frequency dt:dt=""r8"">3312851</Frequency><Timestamp dt:dt=""r8"">31726954285</Timestamp><Current dt:dt=""r8"">0</Current><DateUtc dt:dt=""string"">2022-09-08T09:52:29Z</DateUtc></FrequencyChange></FrequencyChanges></Clock>\n";TMS_Ibrahim-40-3;75029;100561;1;;1662856477;2010242;2010242;09/08/2022;08/09/2022 09:52;11:52:30;2010147;0;;-999999;24;14591;0;1;1314;15905;1;1;1;2;1;0;1;BlockProcFischi;BlockList;1;50;0;;-999999;13;17271;0;1;546;17817;1;1;1;1;ProcFischi1;ListBlockFischi;17;0;2;0;0;5;Pr2_B;;1;op;3;2;1;1;17;1;0;TrialProc;4039;720;Pr2_B;206;1460;1253;ListFischi1;0;;2;203;135042;16;13;1484;136526;284;1;1484;1;829;374;1200;1;0
TMS_Ibrahim;40;3;"<?xml version=""1.0""?>\n<Clock xmlns:dt=""urn:schemas-microsoft-com:datatypes""><Description dt:dt=""string"">E-Prime Primary Realtime Clock</Description><StartTime><Timestamp dt:dt=""int"">0</Timestamp><DateUtc dt:dt=""string"">2022-09-08T09:52:29Z</DateUtc></StartTime><FrequencyChanges><FrequencyChange><Frequency dt:dt=""r8"">3312851</Frequency><Timestamp dt:dt=""r8"">31726954285</Timestamp><Current dt:dt=""r8"">0</Current><DateUtc dt:dt=""string"">2022-09-08T09:52:29Z</DateUtc></FrequencyChange></FrequencyChanges></Clock>\n";TMS_Ibrahim-40-3;75029;100561;1;;1662856477;2010242;2010242;09/08/2022;08/09/2022 09:52;11:52:30;2010147;0;;-999999;24;14591;0;1;1314;15905;1;1;1;2;1;0;1;BlockProcFischi;BlockList;1;50;0;;-999999;13;17271;0;1;546;17817;1;1;1;1;ProcFischi1;ListBlockFischi;18;1;1;0;0;5;Po3_B;150;4;ug;5;2;60;1;18;4;1;TrialProc;1361;1318;Po3_B;17;1603;1586;ListFischi1;0;;2;201;142640;15;15;1629;144269;445;1;1629;1;1521;402;1184;1;1
TMS_Ibrahim;40;3;"<?xml version=""1.0""?>\n<Clock xmlns:dt=""urn:schemas-microsoft-com:datatypes""><Description dt:dt=""string"">E-Prime Primary Realtime Clock</Description><StartTime><Timestamp dt:dt=""int"">0</Timestamp><DateUtc dt:dt=""string"">2022-09-08T09:52:29Z</DateUtc></StartTime><FrequencyChanges><FrequencyChange><Frequency dt:dt=""r8"">3312851</Frequency><Timestamp dt:dt=""r8"">31726954285</Timestamp><Current dt:dt=""r8"">0</Current><DateUtc dt:dt=""string"">2022-09-08T09:52:29Z</DateUtc></FrequencyChange></FrequencyChanges></Clock>\n";TMS_Ibrahim-40-3;75029;100561;1;;1662856477;2010242;2010242;09/08/2022;08/09/2022 09:52;11:52:30;2010147;0;;-999999;24;14591;0;1;1314;15905;1;1;1;2;1;0;1;BlockProcFischi;BlockList;1;50;0;;-999999;13;17271;0;1;546;17817;1;1;1;1;ProcFischi1;ListBlockFischi;19;1;2;0;0;3;Pr3_B;175;3;ug;3;2;28;1;19;3;1;TrialProc;1595;713;Pr3_B;121;1834;1712;ListFischi1;0;;2;203;149964;8;13;1857;151821;563;1;1857;1;831;211;1294;1;1
TMS_Ibrahim;40;3;"<?xml version=""1.0""?>\n<Clock xmlns:dt=""urn:schemas-microsoft-com:datatypes""><Description dt:dt=""string"">E-Prime Primary Realtime Clock</Description><StartTime><Timestamp dt:dt=""int"">0</Timestamp><DateUtc dt:dt=""string"">2022-09-08T09:52:29Z</DateUtc></StartTime><FrequencyChanges><FrequencyChange><Frequency dt:dt=""r8"">3312851</Frequency><Timestamp dt:dt=""r8"">31726954285</Timestamp><Current dt:dt=""r8"">0</Current><DateUtc dt:dt=""string"">2022-09-08T09:52:29Z</DateUtc></FrequencyChange></FrequencyChanges></Clock>\n";TMS_Ibrahim-40-3;75029;100561;1;;1662856477;2010242;2010242;09/08/2022;08/09/2022 09:52;11:52:30;2010147;0;;-999999;24;14591;0;1;1314;15905;1;1;1;2;1;0;1;BlockProcFischi;BlockList;1;50;0;;-999999;13;17271;0;1;546;17817;1;1;1;1;ProcFischi1;ListBlockFischi;20;1;2;0;0;3;Pr4_B;150;3;ug;3;2;19;1;20;3;1;TrialProc;1166;674;Pr4_B;312;1559;1247;ListFischi1;0;;2;201;156866;10;13;1579;158445;443;1;1579;1;858;275;1136;1;1
TMS_Ibrahim;40;3;"<?xml version=""1.0""?>\n<Clock xmlns:dt=""urn:schemas-microsoft-com:datatypes""><Description dt:dt=""string"">E-Prime Primary Realtime Clock</Description><StartTime><Timestamp dt:dt=""int"">0</Timestamp><DateUtc dt:dt=""string"">2022-09-08T09:52:29Z</DateUtc></StartTime><FrequencyChanges><FrequencyChange><Frequency dt:dt=""r8"">3312851</Frequency><Timestamp dt:dt=""r8"">31726954285</Timestamp><Current dt:dt=""r8"">0</Current><DateUtc dt:dt=""string"">2022-09-08T09:52:29Z</DateUtc></FrequencyChange></FrequencyChanges></Clock>\n";TMS_Ibrahim-40-3;75029;100561;1;;1662856477;2010242;2010242;09/08/2022;08/09/2022 09:52;11:52:30;2010147;0;;-999999;24;14591;0;1;1314;15905;1;1;1;2;1;0;1;BlockProcFischi;BlockList;1;50;0;;-999999;13;17271;0;1;546;17817;1;1;1;1;ProcFischi1;ListBlockFischi;21;1;2;0;1;3;Pr3_B;150;3;ug;3;2;18;1;21;3;1;TrialProc;1077;717;Pr3_B;55;1772;1716;ListFischi1;0;;2;203;163846;14;13;1799;165645;423;1;1799;1;215;377;1376;1;1
TMS_Ibrahim;40;3;"<?xml version=""1.0""?>\n<Clock xmlns:dt=""urn:schemas-microsoft-com:datatypes""><Description dt:dt=""string"">E-Prime Primary Realtime Clock</Description><StartTime><Timestamp dt:dt=""int"">0</Timestamp><DateUtc dt:dt=""string"">2022-09-08T09:52:29Z</DateUtc></StartTime><FrequencyChanges><FrequencyChange><Frequency dt:dt=""r8"">3312851</Frequency><Timestamp dt:dt=""r8"">31726954285</Timestamp><Current dt:dt=""r8"">0</Current><DateUtc dt:dt=""string"">2022-09-08T09:52:29Z</DateUtc></FrequencyChange></FrequencyChanges></Clock>\n";TMS_Ibrahim-40-3;75029;100561;1;;1662856477;2010242;2010242;09/08/2022;08/09/2022 09:52;11:52:30;2010147;0;;-999999;24;14591;0;1;1314;15905;1;1;1;2;1;0;1;BlockProcFischi;BlockList;1;50;0;;-999999;13;17271;0;1;546;17817;1;1;1;1;ProcFischi1;ListBlockFischi;22;1;1;0;1;3;Po2_B;200;2;op;3;2;38;1;22;2;0;TrialProc;1388;1585;Po2_B;117;1927;1811;ListFischi1;0;;2;201;170857;14;13;1956;172813;548;1;1956;1;505;437;1408;1;1
TMS_Ibrahim;40;3;"<?xml version=""1.0""?>\n<Clock xmlns:dt=""urn:schemas-microsoft-com:datatypes""><Description dt:dt=""string"">E-Prime Primary Realtime Clock</Description><StartTime><Timestamp dt:dt=""int"">0</Timestamp><DateUtc dt:dt=""string"">2022-09-08T09:52:29Z</DateUtc></StartTime><FrequencyChanges><FrequencyChange><Frequency dt:dt=""r8"">3312851</Frequency><Timestamp dt:dt=""r8"">31726954285</Timestamp><Current dt:dt=""r8"">0</Current><DateUtc dt:dt=""string"">2022-09-08T09:52:29Z</DateUtc></FrequencyChange></FrequencyChanges></Clock>\n";TMS_Ibrahim-40-3;75029;100561;1;;1662856477;2010242;2010242;09/08/2022;08/09/2022 09:52;11:52:30;2010147;0;;-999999;24;14591;0;1;1314;15905;1;1;1;2;1;0;1;BlockProcFischi;BlockList;1;50;0;;-999999;13;17271;0;1;546;17817;1;1;1;1;ProcFischi1;ListBlockFischi;23;1;2;0;0;3;Pr4_B;125;3;ug;3;2;29;1;23;3;1;TrialProc;1625;672;Pr4_B;343;1589;1245;ListFischi1;0;;2;203;177912;9;13;1620;179532;389;1;1620;1;730;411;1231;1;1
TMS_Ibrahim;40;3;"<?xml version=""1.0""?>\n<Clock xmlns:dt=""urn:schemas-microsoft-com:datatypes""><Description dt:dt=""string"">E-Prime Primary Realtime Clock</Description><StartTime><Timestamp dt:dt=""int"">0</Timestamp><DateUtc dt:dt=""string"">2022-09-08T09:52:29Z</DateUtc></StartTime><FrequencyChanges><FrequencyChange><Frequency dt:dt=""r8"">3312851</Frequency><Timestamp dt:dt=""r8"">31726954285</Timestamp><Current dt:dt=""r8"">0</Current><DateUtc dt:dt=""string"">2022-09-08T09:52:29Z</DateUtc></FrequencyChange></FrequencyChanges></Clock>\n";TMS_Ibrahim-40-3;75029;100561;1;;1662856477;2010242;2010242;09/08/2022;08/09/2022 09:52;11:52:30;2010147;0;;-999999;24;14591;0;1;1314;15905;1;1;1;2;1;0;1;BlockProcFischi;BlockList;1;50;0;;-999999;13;17271;0;1;546;17817;1;1;1;1;ProcFischi1;ListBlockFischi;24;1;1;0;0;5;Po4_B;125;4;ug;5;2;56;1;24;4;1;TrialProc;1139;1338;Po4_B;135;1578;1713;ListFischi1;0;;2;201;184658;7;155;1802;186460;363;1;1610;1;436;557;1247;1;1
TMS_Ibrahim;40;3;"<?xml version=""1.0""?>\n<Clock xmlns:dt=""urn:schemas-microsoft-com:datatypes""><Description dt:dt=""string"">E-Prime Primary Realtime Clock</Description><StartTime><Timestamp dt:dt=""int"">0</Timestamp><DateUtc dt:dt=""string"">2022-09-08T09:52:29Z</DateUtc></StartTime><FrequencyChanges><FrequencyChange><Frequency dt:dt=""r8"">3312851</Frequency><Timestamp dt:dt=""r8"">31726954285</Timestamp><Current dt:dt=""r8"">0</Current><DateUtc dt:dt=""string"">2022-09-08T09:52:29Z</DateUtc></FrequencyChange></FrequencyChanges></Clock>\n";TMS_Ibrahim-40-3;75029;100561;1;;1662856477;2010242;2010242;09/08/2022;08/09/2022 09:52;11:52:30;2010147;0;;-999999;24;14591;0;1;1314;15905;1;1;1;2;1;0;1;BlockProcFischi;BlockList;1;50;0;;-999999;13;17271;0;1;546;17817;1;1;1;1;ProcFischi1;ListBlockFischi;25;1;1;0;0;5;Po2_B;125;4;ug;5;2;54;1;25;4;1;TrialProc;1681;1584;Po2_B;124;1687;1812;ListFischi1;0;;2;203;191969;14;15;1707;193676;427;1;1707;1;610;328;1280;1;1
TMS_Ibrahim;40;3;"<?xml version=""1.0""?>\n<Clock xmlns:dt=""urn:schemas-microsoft-com:datatypes""><Description dt:dt=""string"">E-Prime Primary Realtime Clock</Description><StartTime><Timestamp dt:dt=""int"">0</Timestamp><DateUtc dt:dt=""string"">2022-09-08T09:52:29Z</DateUtc></StartTime><FrequencyChanges><FrequencyChange><Frequency dt:dt=""r8"">3312851</Frequency><Timestamp dt:dt=""r8"">31726954285</Timestamp><Current dt:dt=""r8"">0</Current><DateUtc dt:dt=""string"">2022-09-08T09:52:29Z</DateUtc></FrequencyChange></FrequencyChanges></Clock>\n";TMS_Ibrahim-40-3;75029;100561;1;;1662856477;2010242;2010242;09/08/2022;08/09/2022 09:52;11:52:30;2010147;0;;-999999;24;14591;0;1;1314;15905;1;1;1;2;1;0;1;BlockProcFischi;BlockList;1;50;0;;-999999;13;17271;0;1;546;17817;1;1;1;1;ProcFischi1;ListBlockFischi;26;1;1;0;0;3;Po3_B;175;2;op;3;2;44;1;26;2;0;TrialProc;1259;1319;Po3_B;126;1712;1586;ListFischi1;0;;2;201;199191;15;13;1733;200924;341;1;1733;1;697;432;1392;1;1
TMS_Ibrahim;40;3;"<?xml version=""1.0""?>\n<Clock xmlns:dt=""urn:schemas-microsoft-com:datatypes""><Description dt:dt=""string"">E-Prime Primary Realtime Clock</Description><StartTime><Timestamp dt:dt=""int"">0</Timestamp><DateUtc dt:dt=""string"">2022-09-08T09:52:29Z</DateUtc></StartTime><FrequencyChanges><FrequencyChange><Frequency dt:dt=""r8"">3312851</Frequency><Timestamp dt:dt=""r8"">31726954285</Timestamp><Current dt:dt=""r8"">0</Current><DateUtc dt:dt=""string"">2022-09-08T09:52:29Z</DateUtc></FrequencyChange></FrequencyChanges></Clock>\n";TMS_Ibrahim-40-3;75029;100561;1;;1662856477;2010242;2010242;09/08/2022;08/09/2022 09:52;11:52:30;2010147;0;;-999999;24;14591;0;1;1314;15905;1;1;1;2;1;0;1;BlockProcFischi;BlockList;1;50;0;;-999999;13;17271;0;1;546;17817;1;1;1;1;ProcFischi1;ListBlockFischi;27;1;2;0;1;3;Pr2_B;125;3;ug;3;2;22;1;27;3;1;TrialProc;1207;713;Pr2_B;157;1401;1245;ListFischi1;0;;2;203;206582;8;13;1430;208012;358;1;1430;1;773;541;1072;1;1
TMS_Ibrahim;40;3;"<?xml version=""1.0""?>\n<Clock xmlns:dt=""urn:schemas-microsoft-com:datatypes""><Description dt:dt=""string"">E-Prime Primary Realtime Clock</Description><StartTime><Timestamp dt:dt=""int"">0</Timestamp><DateUtc dt:dt=""string"">2022-09-08T09:52:29Z</DateUtc></StartTime><FrequencyChanges><FrequencyChange><Frequency dt:dt=""r8"">3312851</Frequency><Timestamp dt:dt=""r8"">31726954285</Timestamp><Current dt:dt=""r8"">0</Current><DateUtc dt:dt=""string"">2022-09-08T09:52:29Z</DateUtc></FrequencyChange></FrequencyChanges></Clock>\n";TMS_Ibrahim-40-3;75029;100561;1;;1662856477;2010242;2010242;09/08/2022;08/09/2022 09:52;11:52:30;2010147;0;;-999999;24;14591;0;1;1314;15905;1;1;1;2;1;0;1;BlockProcFischi;BlockList;1;50;0;;-999999;13;17271;0;1;546;17817;1;1;1;1;ProcFischi1;ListBlockFischi;28;1;2;0;0;5;Pr3_B;200;1;op;5;2;2;1;28;1;0;TrialProc;1188;712;Pr3_B;25;1735;1711;ListFischi1;0;;2;201;213527;7;15;1764;215291;533;1;1764;1;287;304;1231;1;1
TMS_Ibrahim;40;3;"<?xml version=""1.0""?>\n<Clock xmlns:dt=""urn:schemas-microsoft-com:datatypes""><Description dt:dt=""string"">E-Prime Primary Realtime Clock</Description><StartTime><Timestamp dt:dt=""int"">0</Timestamp><DateUtc dt:dt=""string"">2022-09-08T09:52:29Z</DateUtc></StartTime><FrequencyChanges><FrequencyChange><Frequency dt:dt=""r8"">3312851</Frequency><Timestamp dt:dt=""r8"">31726954285</Timestamp><Current dt:dt=""r8"">0</Current><DateUtc dt:dt=""string"">2022-09-08T09:52:29Z</DateUtc></FrequencyChange></FrequencyChanges></Clock>\n";TMS_Ibrahim-40-3;75029;100561;1;;1662856477;2010242;2010242;09/08/2022;08/09/2022 09:52;11:52:30;2010147;0;;-999999;24;14591;0;1;1314;15905;1;1;1;2;1;0;1;BlockProcFischi;BlockList;1;50;0;;-999999;13;17271;0;1;546;17817;1;1;1;1;ProcFischi1;ListBlockFischi;29;1;2;0;2;3;Pr2_B;125;3;ug;3;2;27;1;29;3;1;TrialProc;690;722;Pr2_B;180;1434;1254;ListFischi1;0;;2;203;220875;16;13;1456;222331;272;1;1456;1;418;284;1184;1;1
TMS_Ibrahim;40;3;"<?xml version=""1.0""?>\n<Clock xmlns:dt=""urn:schemas-microsoft-com:datatypes""><Description dt:dt=""string"">E-Prime Primary Realtime Clock</Description><StartTime><Timestamp dt:dt=""int"">0</Timestamp><DateUtc dt:dt=""string"">2022-09-08T09:52:29Z</DateUtc></StartTime><FrequencyChanges><FrequencyChange><Frequency dt:dt=""r8"">3312851</Frequency><Timestamp dt:dt=""r8"">31726954285</Timestamp><Current dt:dt=""r8"">0</Current><DateUtc dt:dt=""string"">2022-09-08T09:52:29Z</DateUtc></FrequencyChange></FrequencyChanges></Clock>\n";TMS_Ibrahim-40-3;75029;100561;1;;1662856477;2010242;2010242;09/08/2022;08/09/2022 09:52;11:52:30;2010147;0;;-999999;24;14591;0;1;1314;15905;1;1;1;2;1;0;1;BlockProcFischi;BlockList;1;50;0;;-999999;13;17271;0;1;546;17817;1;1;1;1;ProcFischi1;ListBlockFischi;30;1;1;0;0;3;Po8_B;150;2;op;3;2;42;1;30;2;0;TrialProc;1349;1249;Po8_B;242;1822;1581;ListFischi1;0;;3;201;228037;12;13;1846;229883;311;1;1846;1;700;538;1535;1;1
TMS_Ibrahim;40;3;"<?xml version=""1.0""?>\n<Clock xmlns:dt=""urn:schemas-microsoft-com:datatypes""><Description dt:dt=""string"">E-Prime Primary Realtime Clock</Description><StartTime><Timestamp dt:dt=""int"">0</Timestamp><DateUtc dt:dt=""string"">2022-09-08T09:52:29Z</DateUtc></StartTime><FrequencyChanges><FrequencyChange><Frequency dt:dt=""r8"">3312851</Frequency><Timestamp dt:dt=""r8"">31726954285</Timestamp><Current dt:dt=""r8"">0</Current><DateUtc dt:dt=""string"">2022-09-08T09:52:29Z</DateUtc></FrequencyChange></FrequencyChanges></Clock>\n";TMS_Ibrahim-40-3;75029;100561;1;;1662856477;2010242;2010242;09/08/2022;08/09/2022 09:52;11:52:30;2010147;0;;-999999;24;14591;0;1;1314;15905;1;1;1;2;1;0;1;BlockProcFischi;BlockList;1;50;0;;-999999;13;17271;0;1;546;17817;1;1;1;1;ProcFischi1;ListBlockFischi;31;1;1;0;1;3;Po2_B;150;2;op;3;2;33;1;31;2;0;TrialProc;870;1582;Po2_B;46;1855;1809;ListFischi1;0;;3;203;235127;12;13;1876;237003;692;1;1876;1;319;563;1184;1;1
TMS_Ibrahim;40;3;"<?xml version=""1.0""?>\n<Clock xmlns:dt=""urn:schemas-microsoft-com:datatypes""><Description dt:dt=""string"">E-Prime Primary Realtime Clock</Description><StartTime><Timestamp dt:dt=""int"">0</Timestamp><DateUtc dt:dt=""string"">2022-09-08T09:52:29Z</DateUtc></StartTime><FrequencyChanges><FrequencyChange><Frequency dt:dt=""r8"">3312851</Frequency><Timestamp dt:dt=""r8"">31726954285</Timestamp><Current dt:dt=""r8"">0</Current><DateUtc dt:dt=""string"">2022-09-08T09:52:29Z</DateUtc></FrequencyChange></FrequencyChanges></Clock>\n";TMS_Ibrahim-40-3;75029;100561;1;;1662856477;2010242;2010242;09/08/2022;08/09/2022 09:52;11:52:30;2010147;0;;-999999;24;14591;0;1;1314;15905;1;1;1;2;1;0;1;BlockProcFischi;BlockList;1;50;0;;-999999;13;17271;0;1;546;17817;1;1;1;1;ProcFischi1;ListBlockFischi;32;1;1;0;0;3;Po4_B;125;2;op;3;2;35;1;32;2;0;TrialProc;897;1344;Po4_B;80;1637;1717;ListFischi1;0;;2;201;242405;11;133;2902;245307;427;1;1670;1;231;473;1243;1;1
TMS_Ibrahim;40;3;"<?xml version=""1.0""?>\n<Clock xmlns:dt=""urn:schemas-microsoft-com:datatypes""><Description dt:dt=""string"">E-Prime Primary Realtime Clock</Description><StartTime><Timestamp dt:dt=""int"">0</Timestamp><DateUtc dt:dt=""string"">2022-09-08T09:52:29Z</DateUtc></StartTime><FrequencyChanges><FrequencyChange><Frequency dt:dt=""r8"">3312851</Frequency><Timestamp dt:dt=""r8"">31726954285</Timestamp><Current dt:dt=""r8"">0</Current><DateUtc dt:dt=""string"">2022-09-08T09:52:29Z</DateUtc></FrequencyChange></FrequencyChanges></Clock>\n";TMS_Ibrahim-40-3;75029;100561;1;;1662856477;2010242;2010242;09/08/2022;08/09/2022 09:52;11:52:30;2010147;0;;-999999;24;14591;0;1;1314;15905;1;1;1;2;1;0;1;BlockProcFischi;BlockList;1;50;0;;-999999;13;17271;0;1;546;17817;1;1;1;1;ProcFischi1;ListBlockFischi;33;1;2;0;0;5;Pr3_B;175;1;op;5;2;12;1;33;1;0;TrialProc;984;718;Pr3_B;64;1782;1717;ListFischi1;0;;2;203;248614;13;15;1813;250427;421;1;1813;1;338;366;1392;1;1
TMS_Ibrahim;40;3;"<?xml version=""1.0""?>\n<Clock xmlns:dt=""urn:schemas-microsoft-com:datatypes""><Description dt:dt=""string"">E-Prime Primary Realtime Clock</Description><StartTime><Timestamp dt:dt=""int"">0</Timestamp><DateUtc dt:dt=""string"">2022-09-08T09:52:29Z</DateUtc></StartTime><FrequencyChanges><FrequencyChange><Frequency dt:dt=""r8"">3312851</Frequency><Timestamp dt:dt=""r8"">31726954285</Timestamp><Current dt:dt=""r8"">0</Current><DateUtc dt:dt=""string"">2022-09-08T09:52:29Z</DateUtc></FrequencyChange></FrequencyChanges></Clock>\n";TMS_Ibrahim-40-3;75029;100561;1;;1662856477;2010242;2010242;09/08/2022;08/09/2022 09:52;11:52:30;2010147;0;;-999999;24;14591;0;1;1314;15905;1;1;1;2;1;0;1;BlockProcFischi;BlockList;1;50;0;;-999999;13;17271;0;1;546;17817;1;1;1;1;ProcFischi1;ListBlockFischi;34;1;1;0;0;5;Po3_B;125;4;ug;5;2;50;1;34;4;1;TrialProc;1511;1314;Po3_B;37;1617;1580;ListFischi1;0;;2;201;255936;9;15;1642;257578;330;1;1642;1;250;211;1312;1;1
TMS_Ibrahim;40;3;"<?xml version=""1.0""?>\n<Clock xmlns:dt=""urn:schemas-microsoft-com:datatypes""><Description dt:dt=""string"">E-Prime Primary Realtime Clock</Description><StartTime><Timestamp dt:dt=""int"">0</Timestamp><DateUtc dt:dt=""string"">2022-09-08T09:52:29Z</DateUtc></StartTime><FrequencyChanges><FrequencyChange><Frequency dt:dt=""r8"">3312851</Frequency><Timestamp dt:dt=""r8"">31726954285</Timestamp><Current dt:dt=""r8"">0</Current><DateUtc dt:dt=""string"">2022-09-08T09:52:29Z</DateUtc></FrequencyChange></FrequencyChanges></Clock>\n";TMS_Ibrahim-40-3;75029;100561;1;;1662856477;2010242;2010242;09/08/2022;08/09/2022 09:52;11:52:30;2010147;0;;-999999;24;14591;0;1;1314;15905;1;1;1;2;1;0;1;BlockProcFischi;BlockList;1;50;0;;-999999;13;17271;0;1;546;17817;1;1;1;1;ProcFischi1;ListBlockFischi;35;1;1;0;0;3;Po2_B;100;2;op;3;2;43;1;35;2;0;TrialProc;1333;1578;Po2_B;128;1676;1804;ListFischi1;0;;2;203;263188;7;13;1702;264890;326;1;1702;1;234;272;1376;1;1
TMS_Ibrahim;40;3;"<?xml version=""1.0""?>\n<Clock xmlns:dt=""urn:schemas-microsoft-com:datatypes""><Description dt:dt=""string"">E-Prime Primary Realtime Clock</Description><StartTime><Timestamp dt:dt=""int"">0</Timestamp><DateUtc dt:dt=""string"">2022-09-08T09:52:29Z</DateUtc></StartTime><FrequencyChanges><FrequencyChange><Frequency dt:dt=""r8"">3312851</Frequency><Timestamp dt:dt=""r8"">31726954285</Timestamp><Current dt:dt=""r8"">0</Current><DateUtc dt:dt=""string"">2022-09-08T09:52:29Z</DateUtc></FrequencyChange></FrequencyChanges></Clock>\n";TMS_Ibrahim-40-3;75029;100561;1;;1662856477;2010242;2010242;09/08/2022;08/09/2022 09:52;11:52:30;2010147;0;;-999999;24;14591;0;1;1314;15905;1;1;1;2;1;0;1;BlockProcFischi;BlockList;1;50;0;;-999999;13;17271;0;1;546;17817;1;1;1;1;ProcFischi1;ListBlockFischi;36;1;2;1;0;5;Prmod_B;150;1;op;5;2;15;1;36;1;0;TrialProc;945;1315;Prmod_B;30;1677;1648;ListFischi1;0;;2;201;270702;10;15;1708;272410;318;1;1708;1;381;245;1390;1;1
TMS_Ibrahim;40;3;"<?xml version=""1.0""?>\n<Clock xmlns:dt=""urn:schemas-microsoft-com:datatypes""><Description dt:dt=""string"">E-Prime Primary Realtime Clock</Description><StartTime><Timestamp dt:dt=""int"">0</Timestamp><DateUtc dt:dt=""string"">2022-09-08T09:52:29Z</DateUtc></StartTime><FrequencyChanges><FrequencyChange><Frequency dt:dt=""r8"">3312851</Frequency><Timestamp dt:dt=""r8"">31726954285</Timestamp><Current dt:dt=""r8"">0</Current><DateUtc dt:dt=""string"">2022-09-08T09:52:29Z</DateUtc></FrequencyChange></FrequencyChanges></Clock>\n";TMS_Ibrahim-40-3;75029;100561;1;;1662856477;2010242;2010242;09/08/2022;08/09/2022 09:52;11:52:30;2010147;0;;-999999;24;14591;0;1;1314;15905;1;1;1;2;1;0;1;BlockProcFischi;BlockList;1;50;0;;-999999;13;17271;0;1;546;17817;1;1;1;1;ProcFischi1;ListBlockFischi;37;1;1;0;1;3;Po5_B;100;2;op;3;2;36;1;37;2;0;TrialProc;3492;985;Po5_B;119;1597;1478;ListFischi1;0;;2;203;277708;15;133;2126;279834;414;1;1630;1;382;343;1216;1;1
