ExperimentName;Subject;Session;Clock.Information;DataFile.Basename;Display.RefreshRate;ExperimentVersion;Group;Name;RandomSeed;RuntimeVersion;RuntimeVersionExpected;SessionDate;SessionStartDateTimeUtc;SessionTime;StudioVersion;SyncEprimeKinB1.ACC;SyncEprimeKinB1.CRESP;SyncEprimeKinB1.DurationError;SyncEprimeKinB1.OnsetDelay;SyncEprimeKinB1.OnsetTime;SyncEprimeKinB1.OnsetToOnsetTime;SyncEprimeKinB1.RESP;SyncEprimeKinB1.RT;SyncEprimeKinB1.RTTime;Block;BlockINT_0Fischi_1Suoni;BlockList;BlockList.Cycle;BlockList.Sample;ContatoreSuoni;NumSuono;Procedure[Block];Running[Block];Suonilist;SuonoFinSoglia;SyncEprimeKinFischi1.ACC;SyncEprimeKinFischi1.CRESP;SyncEprimeKinFischi1.DurationError;SyncEprimeKinFischi1.OnsetDelay;SyncEprimeKinFischi1.OnsetTime;SyncEprimeKinFischi1.OnsetToOnsetTime;SyncEprimeKinFischi1.RESP;SyncEprimeKinFischi1.RT;SyncEprimeKinFischi1.RTTime;Trial;ListBlockFischi;ListBlockFischi.Cycle;ListBlockFischi.Sample;Procedure[Trial];Running[Trial];SubTrial;AccSogg1;Avatar_Giu1_Su2;CatchTrial_CORR;ContatoreFinestraSoglia;CorrectResponse;File_Name;FinestraSoglia;IdcondEEG;Istruzione;KeySoggetto1;KeySoggetto2;ListFischi1;ListFischi1.Cycle;ListFischi1.Sample;NumeroSuono;OP_UG;Procedure[SubTrial];Resoconto.RT;RTChange;RTimage;RTNetto;RTSubj;RTTouch;Running[SubTrial];StartGo.ACC;StartGo.CRESP;StartGo.DurationError;StartGo.OnsetDelay;StartGo.OnsetTime;StartGo.OnsetToOnsetTime;StartGo.RESP;StartGo.RT;StartGo.RTTime;StartSoggetto1;StartSoggetto2;StopSoggetto1;StopSoggetto2;StopTrial.RT;tempo;TMSoggetto1;ValiditaTrial;Vincitore
TMS_Ibrahim;41;1;"<?xml version=""1.0""?>\n<Clock xmlns:dt=""urn:schemas-microsoft-com:datatypes""><Description dt:dt=""string"">E-Prime Primary Realtime Clock</Description><StartTime><Timestamp dt:dt=""int"">0</Timestamp><DateUtc dt:dt=""string"">2022-10-19T15:34:28Z</DateUtc></StartTime><FrequencyChanges><FrequencyChange><Frequency dt:dt=""r8"">3312832</Frequency><Timestamp dt:dt=""r8"">30712200466</Timestamp><Current dt:dt=""r8"">0</Current><DateUtc dt:dt=""string"">2022-10-19T15:34:28Z</DateUtc></FrequencyChange></FrequencyChanges></Clock>\n";TMS_Ibrahim-41-1;75028;100561;1;1;648072022;2010242;2010242;10/19/2022;19/10/2022 15:34;17:34:28;2010147;0;;-999999;19;31980;0;1;2142;34122;1;1;1;2;1;2;1;BlockProcFischi;BlockList;1;125;0;;-999999;13;35163;0;1;1015;36178;1;1;1;1;ProcFischi1;ListBlockFischi;1;1;1;0;0;5;Po8_B;250;4;ug;5;2;58;1;1;4;1;TrialProc;365;1258;Po8_B;224;1816;1592;ListFischi1;0;;3;203;37895;24;155;1906;39801;482;1;1842;1;2476;590;1360;1;1
TMS_Ibrahim;41;1;"<?xml version=""1.0""?>\n<Clock xmlns:dt=""urn:schemas-microsoft-com:datatypes""><Description dt:dt=""string"">E-Prime Primary Realtime Clock</Description><StartTime><Timestamp dt:dt=""int"">0</Timestamp><DateUtc dt:dt=""string"">2022-10-19T15:34:28Z</DateUtc></StartTime><FrequencyChanges><FrequencyChange><Frequency dt:dt=""r8"">3312832</Frequency><Timestamp dt:dt=""r8"">30712200466</Timestamp><Current dt:dt=""r8"">0</Current><DateUtc dt:dt=""string"">2022-10-19T15:34:28Z</DateUtc></FrequencyChange></FrequencyChanges></Clock>\n";TMS_Ibrahim-41-1;75028;100561;1;1;648072022;2010242;2010242;10/19/2022;19/10/2022 15:34;17:34:28;2010147;0;;-999999;19;31980;0;1;2142;34122;1;1;1;2;1;2;1;BlockProcFischi;BlockList;1;125;0;;-999999;13;35163;0;1;1015;36178;1;1;1;1;ProcFischi1;ListBlockFischi;2;1;1;0;0;3;Po2_B;250;2;op;3;2;38;1;2;2;0;TrialProc;966;1579;Po2_B;61;1743;1804;ListFischi1;0;;1;201;44799;10;133;2762;47561;394;1;1770;1;994;452;1376;1;1
TMS_Ibrahim;41;1;"<?xml version=""1.0""?>\n<Clock xmlns:dt=""urn:schemas-microsoft-com:datatypes""><Description dt:dt=""string"">E-Prime Primary Realtime Clock</Description><StartTime><Timestamp dt:dt=""int"">0</Timestamp><DateUtc dt:dt=""string"">2022-10-19T15:34:28Z</DateUtc></StartTime><FrequencyChanges><FrequencyChange><Frequency dt:dt=""r8"">3312832</Frequency><Timestamp dt:dt=""r8"">30712200466</Timestamp><Current dt:dt=""r8"">0</Current><DateUtc dt:dt=""string"">2022-10-19T15:34:28Z</DateUtc></FrequencyChange></FrequencyChanges></Clock>\n";TMS_Ibrahim-41-1;75028;100561;1;1;648072022;2010242;2010242;10/19/2022;19/10/2022 15:34;17:34:28;2010147;0;;-999999;19;31980;0;1;2142;34122;1;1;1;2;1;2;1;BlockProcFischi;BlockList;1;125;0;;-999999;13;35163;0;1;1015;36178;1;1;1;1;ProcFischi1;ListBlockFischi;3;1;1;0;0;5;Po5_B;225;4;ug;5;2;62;1;3;4;1;TrialProc;902;984;Po5_B;80;1557;1477;ListFischi1;0;;2;203;52165;15;15;1588;53753;360;1;1588;1;1768;294;1228;1;1
TMS_Ibrahim;41;1;"<?xml version=""1.0""?>\n<Clock xmlns:dt=""urn:schemas-microsoft-com:datatypes""><Description dt:dt=""string"">E-Prime Primary Realtime Clock</Description><StartTime><Timestamp dt:dt=""int"">0</Timestamp><DateUtc dt:dt=""string"">2022-10-19T15:34:28Z</DateUtc></StartTime><FrequencyChanges><FrequencyChange><Frequency dt:dt=""r8"">3312832</Frequency><Timestamp dt:dt=""r8"">30712200466</Timestamp><Current dt:dt=""r8"">0</Current><DateUtc dt:dt=""string"">2022-10-19T15:34:28Z</DateUtc></FrequencyChange></FrequencyChanges></Clock>\n";TMS_Ibrahim-41-1;75028;100561;1;1;648072022;2010242;2010242;10/19/2022;19/10/2022 15:34;17:34:28;2010147;0;;-999999;19;31980;0;1;2142;34122;1;1;1;2;1;2;1;BlockProcFischi;BlockList;1;125;0;;-999999;13;35163;0;1;1015;36178;1;1;1;1;ProcFischi1;ListBlockFischi;4;1;1;0;0;3;Po5_B;225;2;op;3;2;41;1;4;2;0;TrialProc;900;982;Po5_B;590;2065;1476;ListFischi1;0;;1;201;59177;14;13;2096;61273;368;1;2096;1;2014;201;1728;1;1
TMS_Ibrahim;41;1;"<?xml version=""1.0""?>\n<Clock xmlns:dt=""urn:schemas-microsoft-com:datatypes""><Description dt:dt=""string"">E-Prime Primary Realtime Clock</Description><StartTime><Timestamp dt:dt=""int"">0</Timestamp><DateUtc dt:dt=""string"">2022-10-19T15:34:28Z</DateUtc></StartTime><FrequencyChanges><FrequencyChange><Frequency dt:dt=""r8"">3312832</Frequency><Timestamp dt:dt=""r8"">30712200466</Timestamp><Current dt:dt=""r8"">0</Current><DateUtc dt:dt=""string"">2022-10-19T15:34:28Z</DateUtc></FrequencyChange></FrequencyChanges></Clock>\n";TMS_Ibrahim-41-1;75028;100561;1;1;648072022;2010242;2010242;10/19/2022;19/10/2022 15:34;17:34:28;2010147;0;;-999999;19;31980;0;1;2142;34122;1;1;1;2;1;2;1;BlockProcFischi;BlockList;1;125;0;;-999999;13;35163;0;1;1015;36178;1;1;1;1;ProcFischi1;ListBlockFischi;5;0;2;0;0;5;Pr3_B;;1;op;1;2;12;1;5;1;0;TrialProc;1505;717;Pr3_B;590;2065;1717;ListFischi1;0;;2;203;67812;15;15;2116;69928;404;1;1;1;325;319;-403;1;0
TMS_Ibrahim;41;1;"<?xml version=""1.0""?>\n<Clock xmlns:dt=""urn:schemas-microsoft-com:datatypes""><Description dt:dt=""string"">E-Prime Primary Realtime Clock</Description><StartTime><Timestamp dt:dt=""int"">0</Timestamp><DateUtc dt:dt=""string"">2022-10-19T15:34:28Z</DateUtc></StartTime><FrequencyChanges><FrequencyChange><Frequency dt:dt=""r8"">3312832</Frequency><Timestamp dt:dt=""r8"">30712200466</Timestamp><Current dt:dt=""r8"">0</Current><DateUtc dt:dt=""string"">2022-10-19T15:34:28Z</DateUtc></FrequencyChange></FrequencyChanges></Clock>\n";TMS_Ibrahim-41-1;75028;100561;1;1;648072022;2010242;2010242;10/19/2022;19/10/2022 15:34;17:34:28;2010147;0;;-999999;19;31980;0;1;2142;34122;1;1;1;2;1;2;1;BlockProcFischi;BlockList;1;125;0;;-999999;13;35163;0;1;1015;36178;1;1;1;1;ProcFischi1;ListBlockFischi;6;1;2;0;0;5;Pr5_B;250;1;op;5;2;4;1;6;1;0;TrialProc;2371;670;Pr5_B;331;1601;1271;ListFischi1;0;;2;203;76522;9;15;1630;78152;416;1;1630;1;1375;502;1214;1;1
TMS_Ibrahim;41;1;"<?xml version=""1.0""?>\n<Clock xmlns:dt=""urn:schemas-microsoft-com:datatypes""><Description dt:dt=""string"">E-Prime Primary Realtime Clock</Description><StartTime><Timestamp dt:dt=""int"">0</Timestamp><DateUtc dt:dt=""string"">2022-10-19T15:34:28Z</DateUtc></StartTime><FrequencyChanges><FrequencyChange><Frequency dt:dt=""r8"">3312832</Frequency><Timestamp dt:dt=""r8"">30712200466</Timestamp><Current dt:dt=""r8"">0</Current><DateUtc dt:dt=""string"">2022-10-19T15:34:28Z</DateUtc></FrequencyChange></FrequencyChanges></Clock>\n";TMS_Ibrahim-41-1;75028;100561;1;1;648072022;2010242;2010242;10/19/2022;19/10/2022 15:34;17:34:28;2010147;0;;-999999;19;31980;0;1;2142;34122;1;1;1;2;1;2;1;BlockProcFischi;BlockList;1;125;0;;-999999;13;35163;0;1;1015;36178;1;1;1;1;ProcFischi1;ListBlockFischi;7;1;1;1;0;5;Pomod_B;200;4;ug;5;2;63;1;7;4;1;TrialProc;1431;1315;Pomod_B;293;1967;1675;ListFischi1;0;;1;201;83582;13;15;1994;85576;394;1;1994;1;970;457;1600;1;1
TMS_Ibrahim;41;1;"<?xml version=""1.0""?>\n<Clock xmlns:dt=""urn:schemas-microsoft-com:datatypes""><Description dt:dt=""string"">E-Prime Primary Realtime Clock</Description><StartTime><Timestamp dt:dt=""int"">0</Timestamp><DateUtc dt:dt=""string"">2022-10-19T15:34:28Z</DateUtc></StartTime><FrequencyChanges><FrequencyChange><Frequency dt:dt=""r8"">3312832</Frequency><Timestamp dt:dt=""r8"">30712200466</Timestamp><Current dt:dt=""r8"">0</Current><DateUtc dt:dt=""string"">2022-10-19T15:34:28Z</DateUtc></FrequencyChange></FrequencyChanges></Clock>\n";TMS_Ibrahim-41-1;75028;100561;1;1;648072022;2010242;2010242;10/19/2022;19/10/2022 15:34;17:34:28;2010147;0;;-999999;19;31980;0;1;2142;34122;1;1;1;2;1;2;1;BlockProcFischi;BlockList;1;125;0;;-999999;13;35163;0;1;1015;36178;1;1;1;1;ProcFischi1;ListBlockFischi;8;1;2;0;1;5;Pr8_B;250;1;op;5;2;5;1;8;1;0;TrialProc;1520;713;Pr8_B;161;1899;1739;ListFischi1;0;;2;203;90755;10;15;1925;92680;517;1;1925;1;674;434;1408;1;1
TMS_Ibrahim;41;1;"<?xml version=""1.0""?>\n<Clock xmlns:dt=""urn:schemas-microsoft-com:datatypes""><Description dt:dt=""string"">E-Prime Primary Realtime Clock</Description><StartTime><Timestamp dt:dt=""int"">0</Timestamp><DateUtc dt:dt=""string"">2022-10-19T15:34:28Z</DateUtc></StartTime><FrequencyChanges><FrequencyChange><Frequency dt:dt=""r8"">3312832</Frequency><Timestamp dt:dt=""r8"">30712200466</Timestamp><Current dt:dt=""r8"">0</Current><DateUtc dt:dt=""string"">2022-10-19T15:34:28Z</DateUtc></FrequencyChange></FrequencyChanges></Clock>\n";TMS_Ibrahim-41-1;75028;100561;1;1;648072022;2010242;2010242;10/19/2022;19/10/2022 15:34;17:34:28;2010147;0;;-999999;19;31980;0;1;2142;34122;1;1;1;2;1;2;1;BlockProcFischi;BlockList;1;125;0;;-999999;13;35163;0;1;1015;36178;1;1;1;1;ProcFischi1;ListBlockFischi;9;1;2;0;0;3;Pr3_B;250;3;ug;3;2;28;1;9;3;1;TrialProc;988;716;Pr3_B;133;1850;1716;ListFischi1;0;;2;201;97735;14;13;1873;99608;481;1;1873;1;1088;421;1392;1;1
TMS_Ibrahim;41;1;"<?xml version=""1.0""?>\n<Clock xmlns:dt=""urn:schemas-microsoft-com:datatypes""><Description dt:dt=""string"">E-Prime Primary Realtime Clock</Description><StartTime><Timestamp dt:dt=""int"">0</Timestamp><DateUtc dt:dt=""string"">2022-10-19T15:34:28Z</DateUtc></StartTime><FrequencyChanges><FrequencyChange><Frequency dt:dt=""r8"">3312832</Frequency><Timestamp dt:dt=""r8"">30712200466</Timestamp><Current dt:dt=""r8"">0</Current><DateUtc dt:dt=""string"">2022-10-19T15:34:28Z</DateUtc></FrequencyChange></FrequencyChanges></Clock>\n";TMS_Ibrahim-41-1;75028;100561;1;1;648072022;2010242;2010242;10/19/2022;19/10/2022 15:34;17:34:28;2010147;0;;-999999;19;31980;0;1;2142;34122;1;1;1;2;1;2;1;BlockProcFischi;BlockList;1;125;0;;-999999;13;35163;0;1;1015;36178;1;1;1;1;ProcFischi1;ListBlockFischi;10;1;2;0;0;5;Pr8_B;225;1;op;5;2;10;1;10;1;0;TrialProc;853;710;Pr8_B;224;1960;1736;ListFischi1;0;;2;203;104631;9;15;1985;106616;625;1;1985;1;755;403;1360;1;1
TMS_Ibrahim;41;1;"<?xml version=""1.0""?>\n<Clock xmlns:dt=""urn:schemas-microsoft-com:datatypes""><Description dt:dt=""string"">E-Prime Primary Realtime Clock</Description><StartTime><Timestamp dt:dt=""int"">0</Timestamp><DateUtc dt:dt=""string"">2022-10-19T15:34:28Z</DateUtc></StartTime><FrequencyChanges><FrequencyChange><Frequency dt:dt=""r8"">3312832</Frequency><Timestamp dt:dt=""r8"">30712200466</Timestamp><Current dt:dt=""r8"">0</Current><DateUtc dt:dt=""string"">2022-10-19T15:34:28Z</DateUtc></FrequencyChange></FrequencyChanges></Clock>\n";TMS_Ibrahim-41-1;75028;100561;1;1;648072022;2010242;2010242;10/19/2022;19/10/2022 15:34;17:34:28;2010147;0;;-999999;19;31980;0;1;2142;34122;1;1;1;2;1;2;1;BlockProcFischi;BlockList;1;125;0;;-999999;13;35163;0;1;1015;36178;1;1;1;1;ProcFischi1;ListBlockFischi;11;1;1;0;1;5;Po3_B;200;4;ug;5;2;55;1;11;4;1;TrialProc;1605;1311;Po3_B;22;1599;1578;ListFischi1;0;;2;201;111748;9;15;1620;113368;547;1;1620;1;628;430;1073;1;1
TMS_Ibrahim;41;1;"<?xml version=""1.0""?>\n<Clock xmlns:dt=""urn:schemas-microsoft-com:datatypes""><Description dt:dt=""string"">E-Prime Primary Realtime Clock</Description><StartTime><Timestamp dt:dt=""int"">0</Timestamp><DateUtc dt:dt=""string"">2022-10-19T15:34:28Z</DateUtc></StartTime><FrequencyChanges><FrequencyChange><Frequency dt:dt=""r8"">3312832</Frequency><Timestamp dt:dt=""r8"">30712200466</Timestamp><Current dt:dt=""r8"">0</Current><DateUtc dt:dt=""string"">2022-10-19T15:34:28Z</DateUtc></FrequencyChange></FrequencyChanges></Clock>\n";TMS_Ibrahim-41-1;75028;100561;1;1;648072022;2010242;2010242;10/19/2022;19/10/2022 15:34;17:34:28;2010147;0;;-999999;19;31980;0;1;2142;34122;1;1;1;2;1;2;1;BlockProcFischi;BlockList;1;125;0;;-999999;13;35163;0;1;1015;36178;1;1;1;1;ProcFischi1;ListBlockFischi;12;1;1;0;0;5;Po4_B;175;4;ug;5;2;61;1;12;4;1;TrialProc;866;1343;Po4_B;100;1617;1717;ListFischi1;0;;2;203;118926;15;15;1641;120567;425;1;1641;1;1075;483;1216;1;1
TMS_Ibrahim;41;1;"<?xml version=""1.0""?>\n<Clock xmlns:dt=""urn:schemas-microsoft-com:datatypes""><Description dt:dt=""string"">E-Prime Primary Realtime Clock</Description><StartTime><Timestamp dt:dt=""int"">0</Timestamp><DateUtc dt:dt=""string"">2022-10-19T15:34:28Z</DateUtc></StartTime><FrequencyChanges><FrequencyChange><Frequency dt:dt=""r8"">3312832</Frequency><Timestamp dt:dt=""r8"">30712200466</Timestamp><Current dt:dt=""r8"">0</Current><DateUtc dt:dt=""string"">2022-10-19T15:34:28Z</DateUtc></FrequencyChange></FrequencyChanges></Clock>\n";TMS_Ibrahim-41-1;75028;100561;1;1;648072022;2010242;2010242;10/19/2022;19/10/2022 15:34;17:34:28;2010147;0;;-999999;19;31980;0;1;2142;34122;1;1;1;2;1;2;1;BlockProcFischi;BlockList;1;125;0;;-999999;13;35163;0;1;1015;36178;1;1;1;1;ProcFischi1;ListBlockFischi;13;1;2;0;0;3;Pr8_B;225;3;ug;3;2;21;1;13;3;1;TrialProc;1212;718;Pr8_B;103;1847;1744;ListFischi1;0;;1;201;126085;14;13;1874;127959;610;1;1874;1;847;407;1264;1;1
TMS_Ibrahim;41;1;"<?xml version=""1.0""?>\n<Clock xmlns:dt=""urn:schemas-microsoft-com:datatypes""><Description dt:dt=""string"">E-Prime Primary Realtime Clock</Description><StartTime><Timestamp dt:dt=""int"">0</Timestamp><DateUtc dt:dt=""string"">2022-10-19T15:34:28Z</DateUtc></StartTime><FrequencyChanges><FrequencyChange><Frequency dt:dt=""r8"">3312832</Frequency><Timestamp dt:dt=""r8"">30712200466</Timestamp><Current dt:dt=""r8"">0</Current><DateUtc dt:dt=""string"">2022-10-19T15:34:28Z</DateUtc></FrequencyChange></FrequencyChanges></Clock>\n";TMS_Ibrahim-41-1;75028;100561;1;1;648072022;2010242;2010242;10/19/2022;19/10/2022 15:34;17:34:28;2010147;0;;-999999;19;31980;0;1;2142;34122;1;1;1;2;1;2;1;BlockProcFischi;BlockList;1;125;0;;-999999;13;35163;0;1;1015;36178;1;1;1;1;ProcFischi1;ListBlockFischi;14;1;2;0;0;3;Pr4_B;200;3;ug;3;2;29;1;14;3;1;TrialProc;1234;678;Pr4_B;191;1441;1250;ListFischi1;0;;2;203;133334;15;13;1473;134807;449;1;1473;1;817;308;1024;1;1
TMS_Ibrahim;41;1;"<?xml version=""1.0""?>\n<Clock xmlns:dt=""urn:schemas-microsoft-com:datatypes""><Description dt:dt=""string"">E-Prime Primary Realtime Clock</Description><StartTime><Timestamp dt:dt=""int"">0</Timestamp><DateUtc dt:dt=""string"">2022-10-19T15:34:28Z</DateUtc></StartTime><FrequencyChanges><FrequencyChange><Frequency dt:dt=""r8"">3312832</Frequency><Timestamp dt:dt=""r8"">30712200466</Timestamp><Current dt:dt=""r8"">0</Current><DateUtc dt:dt=""string"">2022-10-19T15:34:28Z</DateUtc></FrequencyChange></FrequencyChanges></Clock>\n";TMS_Ibrahim-41-1;75028;100561;1;1;648072022;2010242;2010242;10/19/2022;19/10/2022 15:34;17:34:28;2010147;0;;-999999;19;31980;0;1;2142;34122;1;1;1;2;1;2;1;BlockProcFischi;BlockList;1;125;0;;-999999;13;35163;0;1;1015;36178;1;1;1;1;ProcFischi1;ListBlockFischi;15;1;2;0;0;3;Pr4_B;200;3;ug;3;2;19;1;15;3;1;TrialProc;1830;675;Pr4_B;209;1457;1248;ListFischi1;0;;1;201;140400;13;13;1479;141879;583;1;1479;1;840;212;896;1;1
TMS_Ibrahim;41;1;"<?xml version=""1.0""?>\n<Clock xmlns:dt=""urn:schemas-microsoft-com:datatypes""><Description dt:dt=""string"">E-Prime Primary Realtime Clock</Description><StartTime><Timestamp dt:dt=""int"">0</Timestamp><DateUtc dt:dt=""string"">2022-10-19T15:34:28Z</DateUtc></StartTime><FrequencyChanges><FrequencyChange><Frequency dt:dt=""r8"">3312832</Frequency><Timestamp dt:dt=""r8"">30712200466</Timestamp><Current dt:dt=""r8"">0</Current><DateUtc dt:dt=""string"">2022-10-19T15:34:28Z</DateUtc></FrequencyChange></FrequencyChanges></Clock>\n";TMS_Ibrahim-41-1;75028;100561;1;1;648072022;2010242;2010242;10/19/2022;19/10/2022 15:34;17:34:28;2010147;0;;-999999;19;31980;0;1;2142;34122;1;1;1;2;1;2;1;BlockProcFischi;BlockList;1;125;0;;-999999;13;35163;0;1;1015;36178;1;1;1;1;ProcFischi1;ListBlockFischi;16;1;1;0;1;3;Po3_B;225;2;op;3;2;44;1;16;2;0;TrialProc;1010;1312;Po3_B;151;1427;1578;ListFischi1;0;;2;203;147240;11;133;2895;150135;447;1;1455;1;769;589;1008;1;1
TMS_Ibrahim;41;1;"<?xml version=""1.0""?>\n<Clock xmlns:dt=""urn:schemas-microsoft-com:datatypes""><Description dt:dt=""string"">E-Prime Primary Realtime Clock</Description><StartTime><Timestamp dt:dt=""int"">0</Timestamp><DateUtc dt:dt=""string"">2022-10-19T15:34:28Z</DateUtc></StartTime><FrequencyChanges><FrequencyChange><Frequency dt:dt=""r8"">3312832</Frequency><Timestamp dt:dt=""r8"">30712200466</Timestamp><Current dt:dt=""r8"">0</Current><DateUtc dt:dt=""string"">2022-10-19T15:34:28Z</DateUtc></FrequencyChange></FrequencyChanges></Clock>\n";TMS_Ibrahim-41-1;75028;100561;1;1;648072022;2010242;2010242;10/19/2022;19/10/2022 15:34;17:34:28;2010147;0;;-999999;19;31980;0;1;2142;34122;1;1;1;2;1;2;1;BlockProcFischi;BlockList;1;125;0;;-999999;13;35163;0;1;1015;36178;1;1;1;1;ProcFischi1;ListBlockFischi;17;1;1;0;0;3;Po2_B;200;2;op;3;2;43;1;17;2;0;TrialProc;699;1583;Po2_B;53;1757;1809;ListFischi1;0;;3;201;153273;15;133;2286;155559;670;1;1790;1;450;391;1120;1;1
TMS_Ibrahim;41;1;"<?xml version=""1.0""?>\n<Clock xmlns:dt=""urn:schemas-microsoft-com:datatypes""><Description dt:dt=""string"">E-Prime Primary Realtime Clock</Description><StartTime><Timestamp dt:dt=""int"">0</Timestamp><DateUtc dt:dt=""string"">2022-10-19T15:34:28Z</DateUtc></StartTime><FrequencyChanges><FrequencyChange><Frequency dt:dt=""r8"">3312832</Frequency><Timestamp dt:dt=""r8"">30712200466</Timestamp><Current dt:dt=""r8"">0</Current><DateUtc dt:dt=""string"">2022-10-19T15:34:28Z</DateUtc></FrequencyChange></FrequencyChanges></Clock>\n";TMS_Ibrahim-41-1;75028;100561;1;1;648072022;2010242;2010242;10/19/2022;19/10/2022 15:34;17:34:28;2010147;0;;-999999;19;31980;0;1;2142;34122;1;1;1;2;1;2;1;BlockProcFischi;BlockList;1;125;0;;-999999;13;35163;0;1;1015;36178;1;1;1;1;ProcFischi1;ListBlockFischi;18;1;1;0;0;5;Po4_B;150;4;ug;5;2;56;1;18;4;1;TrialProc;1138;1335;Po4_B;69;1640;1709;ListFischi1;0;;2;203;160104;8;15;1662;161766;526;1;1662;1;738;544;1136;1;1
TMS_Ibrahim;41;1;"<?xml version=""1.0""?>\n<Clock xmlns:dt=""urn:schemas-microsoft-com:datatypes""><Description dt:dt=""string"">E-Prime Primary Realtime Clock</Description><StartTime><Timestamp dt:dt=""int"">0</Timestamp><DateUtc dt:dt=""string"">2022-10-19T15:34:28Z</DateUtc></StartTime><FrequencyChanges><FrequencyChange><Frequency dt:dt=""r8"">3312832</Frequency><Timestamp dt:dt=""r8"">30712200466</Timestamp><Current dt:dt=""r8"">0</Current><DateUtc dt:dt=""string"">2022-10-19T15:34:28Z</DateUtc></FrequencyChange></FrequencyChanges></Clock>\n";TMS_Ibrahim-41-1;75028;100561;1;1;648072022;2010242;2010242;10/19/2022;19/10/2022 15:34;17:34:28;2010147;0;;-999999;19;31980;0;1;2142;34122;1;1;1;2;1;2;1;BlockProcFischi;BlockList;1;125;0;;-999999;13;35163;0;1;1015;36178;1;1;1;1;ProcFischi1;ListBlockFischi;19;1;1;0;0;3;Po4_B;175;2;op;3;2;40;1;19;2;0;TrialProc;1048;1353;Po4_B;132;1582;1714;ListFischi1;0;;2;203;167577;13;13;1613;169190;493;1;1613;1;559;410;1120;1;1
TMS_Ibrahim;41;1;"<?xml version=""1.0""?>\n<Clock xmlns:dt=""urn:schemas-microsoft-com:datatypes""><Description dt:dt=""string"">E-Prime Primary Realtime Clock</Description><StartTime><Timestamp dt:dt=""int"">0</Timestamp><DateUtc dt:dt=""string"">2022-10-19T15:34:28Z</DateUtc></StartTime><FrequencyChanges><FrequencyChange><Frequency dt:dt=""r8"">3312832</Frequency><Timestamp dt:dt=""r8"">30712200466</Timestamp><Current dt:dt=""r8"">0</Current><DateUtc dt:dt=""string"">2022-10-19T15:34:28Z</DateUtc></FrequencyChange></FrequencyChanges></Clock>\n";TMS_Ibrahim-41-1;75028;100561;1;1;648072022;2010242;2010242;10/19/2022;19/10/2022 15:34;17:34:28;2010147;0;;-999999;19;31980;0;1;2142;34122;1;1;1;2;1;2;1;BlockProcFischi;BlockList;1;125;0;;-999999;13;35163;0;1;1015;36178;1;1;1;1;ProcFischi1;ListBlockFischi;20;1;2;1;0;3;Prmod_B;200;3;ug;3;2;32;1;20;3;1;TrialProc;2388;1312;Prmod_B;398;2044;1646;ListFischi1;0;;1;201;175004;9;13;2074;177078;394;1;2074;1;595;587;1680;1;1
TMS_Ibrahim;41;1;"<?xml version=""1.0""?>\n<Clock xmlns:dt=""urn:schemas-microsoft-com:datatypes""><Description dt:dt=""string"">E-Prime Primary Realtime Clock</Description><StartTime><Timestamp dt:dt=""int"">0</Timestamp><DateUtc dt:dt=""string"">2022-10-19T15:34:28Z</DateUtc></StartTime><FrequencyChanges><FrequencyChange><Frequency dt:dt=""r8"">3312832</Frequency><Timestamp dt:dt=""r8"">30712200466</Timestamp><Current dt:dt=""r8"">0</Current><DateUtc dt:dt=""string"">2022-10-19T15:34:28Z</DateUtc></FrequencyChange></FrequencyChanges></Clock>\n";TMS_Ibrahim-41-1;75028;100561;1;1;648072022;2010242;2010242;10/19/2022;19/10/2022 15:34;17:34:28;2010147;0;;-999999;19;31980;0;1;2142;34122;1;1;1;2;1;2;1;BlockProcFischi;BlockList;1;125;0;;-999999;13;35163;0;1;1015;36178;1;1;1;1;ProcFischi1;ListBlockFischi;21;1;2;0;1;3;Pr3_B;200;3;ug;3;2;18;1;21;3;1;TrialProc;962;711;Pr3_B;112;1821;1709;ListFischi1;0;;2;203;181961;10;133;2189;184150;573;1;1853;1;618;465;1280;1;1
TMS_Ibrahim;41;1;"<?xml version=""1.0""?>\n<Clock xmlns:dt=""urn:schemas-microsoft-com:datatypes""><Description dt:dt=""string"">E-Prime Primary Realtime Clock</Description><StartTime><Timestamp dt:dt=""int"">0</Timestamp><DateUtc dt:dt=""string"">2022-10-19T15:34:28Z</DateUtc></StartTime><FrequencyChanges><FrequencyChange><Frequency dt:dt=""r8"">3312832</Frequency><Timestamp dt:dt=""r8"">30712200466</Timestamp><Current dt:dt=""r8"">0</Current><DateUtc dt:dt=""string"">2022-10-19T15:34:28Z</DateUtc></FrequencyChange></FrequencyChanges></Clock>\n";TMS_Ibrahim-41-1;75028;100561;1;1;648072022;2010242;2010242;10/19/2022;19/10/2022 15:34;17:34:28;2010147;0;;-999999;19;31980;0;1;2142;34122;1;1;1;2;1;2;1;BlockProcFischi;BlockList;1;125;0;;-999999;13;35163;0;1;1015;36178;1;1;1;1;ProcFischi1;ListBlockFischi;22;1;1;0;0;3;Po8_B;150;2;op;3;2;42;1;22;2;0;TrialProc;1488;1252;Po8_B;19;1567;1585;ListFischi1;0;;2;201;188712;16;13;1598;190310;462;1;1598;1;473;453;1136;1;1
TMS_Ibrahim;41;1;"<?xml version=""1.0""?>\n<Clock xmlns:dt=""urn:schemas-microsoft-com:datatypes""><Description dt:dt=""string"">E-Prime Primary Realtime Clock</Description><StartTime><Timestamp dt:dt=""int"">0</Timestamp><DateUtc dt:dt=""string"">2022-10-19T15:34:28Z</DateUtc></StartTime><FrequencyChanges><FrequencyChange><Frequency dt:dt=""r8"">3312832</Frequency><Timestamp dt:dt=""r8"">30712200466</Timestamp><Current dt:dt=""r8"">0</Current><DateUtc dt:dt=""string"">2022-10-19T15:34:28Z</DateUtc></FrequencyChange></FrequencyChanges></Clock>\n";TMS_Ibrahim-41-1;75028;100561;1;1;648072022;2010242;2010242;10/19/2022;19/10/2022 15:34;17:34:28;2010147;0;;-999999;19;31980;0;1;2142;34122;1;1;1;2;1;2;1;BlockProcFischi;BlockList;1;125;0;;-999999;13;35163;0;1;1015;36178;1;1;1;1;ProcFischi1;ListBlockFischi;23;1;2;0;0;3;Pr2_B;175;3;ug;3;2;17;1;23;3;1;TrialProc;917;715;Pr2_B;143;1392;1249;ListFischi1;0;;2;203;196139;13;13;1419;197558;395;1;1419;1;743;252;1024;1;1
TMS_Ibrahim;41;1;"<?xml version=""1.0""?>\n<Clock xmlns:dt=""urn:schemas-microsoft-com:datatypes""><Description dt:dt=""string"">E-Prime Primary Realtime Clock</Description><StartTime><Timestamp dt:dt=""int"">0</Timestamp><DateUtc dt:dt=""string"">2022-10-19T15:34:28Z</DateUtc></StartTime><FrequencyChanges><FrequencyChange><Frequency dt:dt=""r8"">3312832</Frequency><Timestamp dt:dt=""r8"">30712200466</Timestamp><Current dt:dt=""r8"">0</Current><DateUtc dt:dt=""string"">2022-10-19T15:34:28Z</DateUtc></FrequencyChange></FrequencyChanges></Clock>\n";TMS_Ibrahim-41-1;75028;100561;1;1;648072022;2010242;2010242;10/19/2022;19/10/2022 15:34;17:34:28;2010147;0;;-999999;19;31980;0;1;2142;34122;1;1;1;2;1;2;1;BlockProcFischi;BlockList;1;125;0;;-999999;13;35163;0;1;1015;36178;1;1;1;1;ProcFischi1;ListBlockFischi;24;1;2;1;0;3;Prmod_B;150;3;ug;3;2;31;1;24;3;1;TrialProc;959;1315;Prmod_B;136;1783;1648;ListFischi1;0;;1;201;203271;12;13;1807;205078;495;1;1807;1;467;288;1312;1;1
TMS_Ibrahim;41;1;"<?xml version=""1.0""?>\n<Clock xmlns:dt=""urn:schemas-microsoft-com:datatypes""><Description dt:dt=""string"">E-Prime Primary Realtime Clock</Description><StartTime><Timestamp dt:dt=""int"">0</Timestamp><DateUtc dt:dt=""string"">2022-10-19T15:34:28Z</DateUtc></StartTime><FrequencyChanges><FrequencyChange><Frequency dt:dt=""r8"">3312832</Frequency><Timestamp dt:dt=""r8"">30712200466</Timestamp><Current dt:dt=""r8"">0</Current><DateUtc dt:dt=""string"">2022-10-19T15:34:28Z</DateUtc></FrequencyChange></FrequencyChanges></Clock>\n";TMS_Ibrahim-41-1;75028;100561;1;1;648072022;2010242;2010242;10/19/2022;19/10/2022 15:34;17:34:28;2010147;0;;-999999;19;31980;0;1;2142;34122;1;1;1;2;1;2;1;BlockProcFischi;BlockList;1;125;0;;-999999;13;35163;0;1;1015;36178;1;1;1;1;ProcFischi1;ListBlockFischi;25;0;1;0;0;3;Po8_B;;2;op;5;2;37;1;25;2;0;TrialProc;3044;1242;Po8_B;63;1637;1574;ListFischi1;0;;2;203;210233;7;15;1660;211893;460;1;1660;1;469;380;1200;1;0
TMS_Ibrahim;41;1;"<?xml version=""1.0""?>\n<Clock xmlns:dt=""urn:schemas-microsoft-com:datatypes""><Description dt:dt=""string"">E-Prime Primary Realtime Clock</Description><StartTime><Timestamp dt:dt=""int"">0</Timestamp><DateUtc dt:dt=""string"">2022-10-19T15:34:28Z</DateUtc></StartTime><FrequencyChanges><FrequencyChange><Frequency dt:dt=""r8"">3312832</Frequency><Timestamp dt:dt=""r8"">30712200466</Timestamp><Current dt:dt=""r8"">0</Current><DateUtc dt:dt=""string"">2022-10-19T15:34:28Z</DateUtc></FrequencyChange></FrequencyChanges></Clock>\n";TMS_Ibrahim-41-1;75028;100561;1;1;648072022;2010242;2010242;10/19/2022;19/10/2022 15:34;17:34:28;2010147;0;;-999999;19;31980;0;1;2142;34122;1;1;1;2;1;2;1;BlockProcFischi;BlockList;1;125;0;;-999999;13;35163;0;1;1015;36178;1;1;1;1;ProcFischi1;ListBlockFischi;26;1;2;0;0;3;Pr4_B;150;3;ug;3;2;24;1;26;3;1;TrialProc;888;676;Pr4_B;133;1382;1248;ListFischi1;0;;2;201;217370;14;133;2475;219845;459;1;1403;1;921;352;944;1;1
TMS_Ibrahim;41;1;"<?xml version=""1.0""?>\n<Clock xmlns:dt=""urn:schemas-microsoft-com:datatypes""><Description dt:dt=""string"">E-Prime Primary Realtime Clock</Description><StartTime><Timestamp dt:dt=""int"">0</Timestamp><DateUtc dt:dt=""string"">2022-10-19T15:34:28Z</DateUtc></StartTime><FrequencyChanges><FrequencyChange><Frequency dt:dt=""r8"">3312832</Frequency><Timestamp dt:dt=""r8"">30712200466</Timestamp><Current dt:dt=""r8"">0</Current><DateUtc dt:dt=""string"">2022-10-19T15:34:28Z</DateUtc></FrequencyChange></FrequencyChanges></Clock>\n";TMS_Ibrahim-41-1;75028;100561;1;1;648072022;2010242;2010242;10/19/2022;19/10/2022 15:34;17:34:28;2010147;0;;-999999;19;31980;0;1;2142;34122;1;1;1;2;1;2;1;BlockProcFischi;BlockList;1;125;0;;-999999;13;35163;0;1;1015;36178;1;1;1;1;ProcFischi1;ListBlockFischi;27;1;2;0;0;5;Pr2_B;225;1;op;5;2;11;1;27;1;0;TrialProc;704;715;Pr2_B;779;2026;1248;ListFischi1;0;;2;203;223409;13;15;2052;225461;388;1;2052;1;1054;312;1664;1;1
TMS_Ibrahim;41;1;"<?xml version=""1.0""?>\n<Clock xmlns:dt=""urn:schemas-microsoft-com:datatypes""><Description dt:dt=""string"">E-Prime Primary Realtime Clock</Description><StartTime><Timestamp dt:dt=""int"">0</Timestamp><DateUtc dt:dt=""string"">2022-10-19T15:34:28Z</DateUtc></StartTime><FrequencyChanges><FrequencyChange><Frequency dt:dt=""r8"">3312832</Frequency><Timestamp dt:dt=""r8"">30712200466</Timestamp><Current dt:dt=""r8"">0</Current><DateUtc dt:dt=""string"">2022-10-19T15:34:28Z</DateUtc></FrequencyChange></FrequencyChanges></Clock>\n";TMS_Ibrahim-41-1;75028;100561;1;1;648072022;2010242;2010242;10/19/2022;19/10/2022 15:34;17:34:28;2010147;0;;-999999;19;31980;0;1;2142;34122;1;1;1;2;1;2;1;BlockProcFischi;BlockList;1;125;0;;-999999;13;35163;0;1;1015;36178;1;1;1;1;ProcFischi1;ListBlockFischi;28;1;2;1;1;5;Prmod_B;225;1;op;5;2;15;1;28;1;0;TrialProc;932;1310;Prmod_B;196;1838;1643;ListFischi1;0;;2;201;230011;8;15;1866;231877;346;1;1866;1;680;421;1520;1;1
TMS_Ibrahim;41;1;"<?xml version=""1.0""?>\n<Clock xmlns:dt=""urn:schemas-microsoft-com:datatypes""><Description dt:dt=""string"">E-Prime Primary Realtime Clock</Description><StartTime><Timestamp dt:dt=""int"">0</Timestamp><DateUtc dt:dt=""string"">2022-10-19T15:34:28Z</DateUtc></StartTime><FrequencyChanges><FrequencyChange><Frequency dt:dt=""r8"">3312832</Frequency><Timestamp dt:dt=""r8"">30712200466</Timestamp><Current dt:dt=""r8"">0</Current><DateUtc dt:dt=""string"">2022-10-19T15:34:28Z</DateUtc></FrequencyChange></FrequencyChanges></Clock>\n";TMS_Ibrahim-41-1;75028;100561;1;1;648072022;2010242;2010242;10/19/2022;19/10/2022 15:34;17:34:28;2010147;0;;-999999;19;31980;0;1;2142;34122;1;1;1;2;1;2;1;BlockProcFischi;BlockList;1;125;0;;-999999;13;35163;0;1;1015;36178;1;1;1;1;ProcFischi1;ListBlockFischi;29;1;1;0;0;5;Po5_B;125;4;ug;5;2;52;1;29;4;1;TrialProc;892;979;Po5_B;94;1567;1473;ListFischi1;0;;2;203;237153;10;15;1588;238741;420;1;1588;1;516;420;1168;1;1
TMS_Ibrahim;41;1;"<?xml version=""1.0""?>\n<Clock xmlns:dt=""urn:schemas-microsoft-com:datatypes""><Description dt:dt=""string"">E-Prime Primary Realtime Clock</Description><StartTime><Timestamp dt:dt=""int"">0</Timestamp><DateUtc dt:dt=""string"">2022-10-19T15:34:28Z</DateUtc></StartTime><FrequencyChanges><FrequencyChange><Frequency dt:dt=""r8"">3312832</Frequency><Timestamp dt:dt=""r8"">30712200466</Timestamp><Current dt:dt=""r8"">0</Current><DateUtc dt:dt=""string"">2022-10-19T15:34:28Z</DateUtc></FrequencyChange></FrequencyChanges></Clock>\n";TMS_Ibrahim-41-1;75028;100561;1;1;648072022;2010242;2010242;10/19/2022;19/10/2022 15:34;17:34:28;2010147;0;;-999999;19;31980;0;1;2142;34122;1;1;1;2;1;2;1;BlockProcFischi;BlockList;1;125;0;;-999999;13;35163;0;1;1015;36178;1;1;1;1;ProcFischi1;ListBlockFischi;30;1;2;0;0;5;Pr2_B;200;1;op;5;2;1;1;30;1;0;TrialProc;960;711;Pr2_B;231;1475;1245;ListFischi1;0;;3;201;244202;12;15;1499;245701;379;1;1499;1;327;432;1120;1;1
TMS_Ibrahim;41;1;"<?xml version=""1.0""?>\n<Clock xmlns:dt=""urn:schemas-microsoft-com:datatypes""><Description dt:dt=""string"">E-Prime Primary Realtime Clock</Description><StartTime><Timestamp dt:dt=""int"">0</Timestamp><DateUtc dt:dt=""string"">2022-10-19T15:34:28Z</DateUtc></StartTime><FrequencyChanges><FrequencyChange><Frequency dt:dt=""r8"">3312832</Frequency><Timestamp dt:dt=""r8"">30712200466</Timestamp><Current dt:dt=""r8"">0</Current><DateUtc dt:dt=""string"">2022-10-19T15:34:28Z</DateUtc></FrequencyChange></FrequencyChanges></Clock>\n";TMS_Ibrahim-41-1;75028;100561;1;1;648072022;2010242;2010242;10/19/2022;19/10/2022 15:34;17:34:28;2010147;0;;-999999;19;31980;0;1;2142;34122;1;1;1;2;1;2;1;BlockProcFischi;BlockList;1;125;0;;-999999;13;35163;0;1;1015;36178;1;1;1;1;ProcFischi1;ListBlockFischi;31;1;1;0;0;3;Po3_B;125;2;op;3;2;39;1;31;2;0;TrialProc;1167;1310;Po3_B;35;1542;1577;ListFischi1;0;;2;203;251363;8;13;1570;252933;194;1;1570;1;863;387;1376;1;1
TMS_Ibrahim;41;1;"<?xml version=""1.0""?>\n<Clock xmlns:dt=""urn:schemas-microsoft-com:datatypes""><Description dt:dt=""string"">E-Prime Primary Realtime Clock</Description><StartTime><Timestamp dt:dt=""int"">0</Timestamp><DateUtc dt:dt=""string"">2022-10-19T15:34:28Z</DateUtc></StartTime><FrequencyChanges><FrequencyChange><Frequency dt:dt=""r8"">3312832</Frequency><Timestamp dt:dt=""r8"">30712200466</Timestamp><Current dt:dt=""r8"">0</Current><DateUtc dt:dt=""string"">2022-10-19T15:34:28Z</DateUtc></FrequencyChange></FrequencyChanges></Clock>\n";TMS_Ibrahim-41-1;75028;100561;1;1;648072022;2010242;2010242;10/19/2022;19/10/2022 15:34;17:34:28;2010147;0;;-999999;19;31980;0;1;2142;34122;1;1;1;2;1;2;1;BlockProcFischi;BlockList;1;125;0;;-999999;13;35163;0;1;1015;36178;1;1;1;1;ProcFischi1;ListBlockFischi;32;1;2;0;1;5;Pr4_B;200;1;op;5;2;8;1;32;1;0;TrialProc;1412;672;Pr4_B;46;1291;1245;ListFischi1;0;;2;201;258931;11;15;1313;260244;129;1;1313;1;592;441;1184;1;1
TMS_Ibrahim;41;1;"<?xml version=""1.0""?>\n<Clock xmlns:dt=""urn:schemas-microsoft-com:datatypes""><Description dt:dt=""string"">E-Prime Primary Realtime Clock</Description><StartTime><Timestamp dt:dt=""int"">0</Timestamp><DateUtc dt:dt=""string"">2022-10-19T15:34:28Z</DateUtc></StartTime><FrequencyChanges><FrequencyChange><Frequency dt:dt=""r8"">3312832</Frequency><Timestamp dt:dt=""r8"">30712200466</Timestamp><Current dt:dt=""r8"">0</Current><DateUtc dt:dt=""string"">2022-10-19T15:34:28Z</DateUtc></FrequencyChange></FrequencyChanges></Clock>\n";TMS_Ibrahim-41-1;75028;100561;1;1;648072022;2010242;2010242;10/19/2022;19/10/2022 15:34;17:34:28;2010147;0;;-999999;19;31980;0;1;2142;34122;1;1;1;2;1;2;1;BlockProcFischi;BlockList;1;125;0;;-999999;13;35163;0;1;1015;36178;1;1;1;1;ProcFischi1;ListBlockFischi;33;1;2;0;0;5;Pr3_B;175;1;op;5;2;7;1;33;1;0;TrialProc;1597;711;Pr3_B;125;1836;1712;ListFischi1;0;;2;203;266049;10;15;1859;267908;515;1;1859;1;617;373;1344;1;1
TMS_Ibrahim;41;1;"<?xml version=""1.0""?>\n<Clock xmlns:dt=""urn:schemas-microsoft-com:datatypes""><Description dt:dt=""string"">E-Prime Primary Realtime Clock</Description><StartTime><Timestamp dt:dt=""int"">0</Timestamp><DateUtc dt:dt=""string"">2022-10-19T15:34:28Z</DateUtc></StartTime><FrequencyChanges><FrequencyChange><Frequency dt:dt=""r8"">3312832</Frequency><Timestamp dt:dt=""r8"">30712200466</Timestamp><Current dt:dt=""r8"">0</Current><DateUtc dt:dt=""string"">2022-10-19T15:34:28Z</DateUtc></FrequencyChange></FrequencyChanges></Clock>\n";TMS_Ibrahim-41-1;75028;100561;1;1;648072022;2010242;2010242;10/19/2022;19/10/2022 15:34;17:34:28;2010147;0;;-999999;19;31980;0;1;2142;34122;1;1;1;2;1;2;1;BlockProcFischi;BlockList;1;125;0;;-999999;13;35163;0;1;1015;36178;1;1;1;1;ProcFischi1;ListBlockFischi;34;1;1;0;0;5;Po3_B;100;4;ug;5;2;60;1;34;4;1;TrialProc;820;1312;Po3_B;394;1971;1578;ListFischi1;0;;2;201;273299;11;15;2001;275300;419;1;2001;1;1331;415;1582;1;1
TMS_Ibrahim;41;1;"<?xml version=""1.0""?>\n<Clock xmlns:dt=""urn:schemas-microsoft-com:datatypes""><Description dt:dt=""string"">E-Prime Primary Realtime Clock</Description><StartTime><Timestamp dt:dt=""int"">0</Timestamp><DateUtc dt:dt=""string"">2022-10-19T15:34:28Z</DateUtc></StartTime><FrequencyChanges><FrequencyChange><Frequency dt:dt=""r8"">3312832</Frequency><Timestamp dt:dt=""r8"">30712200466</Timestamp><Current dt:dt=""r8"">0</Current><DateUtc dt:dt=""string"">2022-10-19T15:34:28Z</DateUtc></FrequencyChange></FrequencyChanges></Clock>\n";TMS_Ibrahim-41-1;75028;100561;1;1;648072022;2010242;2010242;10/19/2022;19/10/2022 15:34;17:34:28;2010147;0;;-999999;19;31980;0;1;2142;34122;1;1;1;2;1;2;1;BlockProcFischi;BlockList;1;125;0;;-999999;13;35163;0;1;1015;36178;1;1;1;1;ProcFischi1;ListBlockFischi;35;1;2;0;0;5;Pr3_B;150;1;op;5;2;2;1;35;1;0;TrialProc;1894;716;Pr3_B;0;1716;1716;ListFischi1;0;;3;203;280305;15;15;1747;282052;195;1;1747;1;761;311;1552;1;1
TMS_Ibrahim;41;1;"<?xml version=""1.0""?>\n<Clock xmlns:dt=""urn:schemas-microsoft-com:datatypes""><Description dt:dt=""string"">E-Prime Primary Realtime Clock</Description><StartTime><Timestamp dt:dt=""int"">0</Timestamp><DateUtc dt:dt=""string"">2022-10-19T15:34:28Z</DateUtc></StartTime><FrequencyChanges><FrequencyChange><Frequency dt:dt=""r8"">3312832</Frequency><Timestamp dt:dt=""r8"">30712200466</Timestamp><Current dt:dt=""r8"">0</Current><DateUtc dt:dt=""string"">2022-10-19T15:34:28Z</DateUtc></FrequencyChange></FrequencyChanges></Clock>\n";TMS_Ibrahim-41-1;75028;100561;1;1;648072022;2010242;2010242;10/19/2022;19/10/2022 15:34;17:34:28;2010147;0;;-999999;19;31980;0;1;2142;34122;1;1;1;2;1;2;1;BlockProcFischi;BlockList;1;125;0;;-999999;13;35163;0;1;1015;36178;1;1;1;1;ProcFischi1;ListBlockFischi;36;1;1;0;1;5;Po2_B;100;4;ug;5;2;49;1;36;4;1;TrialProc;834;1584;Po2_B;51;1759;1810;ListFischi1;0;;2;201;287409;15;15;1795;289204;483;1;1795;1;596;344;1312;1;1
TMS_Ibrahim;41;1;"<?xml version=""1.0""?>\n<Clock xmlns:dt=""urn:schemas-microsoft-com:datatypes""><Description dt:dt=""string"">E-Prime Primary Realtime Clock</Description><StartTime><Timestamp dt:dt=""int"">0</Timestamp><DateUtc dt:dt=""string"">2022-10-19T15:34:28Z</DateUtc></StartTime><FrequencyChanges><FrequencyChange><Frequency dt:dt=""r8"">3312832</Frequency><Timestamp dt:dt=""r8"">30712200466</Timestamp><Current dt:dt=""r8"">0</Current><DateUtc dt:dt=""string"">2022-10-19T15:34:28Z</DateUtc></FrequencyChange></FrequencyChanges></Clock>\n";TMS_Ibrahim-41-1;75028;100561;1;1;648072022;2010242;2010242;10/19/2022;19/10/2022 15:34;17:34:28;2010147;0;;-999999;19;31980;0;1;2142;34122;1;1;1;2;1;2;1;BlockProcFischi;BlockList;1;125;0;;-999999;13;35163;0;1;1015;36178;1;1;1;1;ProcFischi1;ListBlockFischi;37;1;2;1;0;5;Prmod_B;125;1;op;5;2;16;1;37;1;0;TrialProc;624;1312;Prmod_B;411;2056;1645;ListFischi1;0;;2;203;294797;11;15;2087;296884;471;1;2087;1;552;378;1616;1;1
TMS_Ibrahim;41;1;"<?xml version=""1.0""?>\n<Clock xmlns:dt=""urn:schemas-microsoft-com:datatypes""><Description dt:dt=""string"">E-Prime Primary Realtime Clock</Description><StartTime><Timestamp dt:dt=""int"">0</Timestamp><DateUtc dt:dt=""string"">2022-10-19T15:34:28Z</DateUtc></StartTime><FrequencyChanges><FrequencyChange><Frequency dt:dt=""r8"">3312832</Frequency><Timestamp dt:dt=""r8"">30712200466</Timestamp><Current dt:dt=""r8"">0</Current><DateUtc dt:dt=""string"">2022-10-19T15:34:28Z</DateUtc></FrequencyChange></FrequencyChanges></Clock>\n";TMS_Ibrahim-41-1;75028;100561;1;1;648072022;2010242;2010242;10/19/2022;19/10/2022 15:34;17:34:28;2010147;0;;-999999;19;31980;0;1;2142;34122;1;1;1;2;1;2;1;BlockProcFischi;BlockList;1;125;0;;-999999;13;35163;0;1;1015;36178;1;1;1;1;ProcFischi1;ListBlockFischi;38;1;2;0;0;3;Pr5_B;150;3;ug;3;2;30;1;38;3;1;TrialProc;937;673;Pr5_B;202;1474;1272;ListFischi1;0;;2;201;301542;10;13;1502;303044;398;1;1502;1;376;280;1104;1;1
TMS_Ibrahim;41;1;"<?xml version=""1.0""?>\n<Clock xmlns:dt=""urn:schemas-microsoft-com:datatypes""><Description dt:dt=""string"">E-Prime Primary Realtime Clock</Description><StartTime><Timestamp dt:dt=""int"">0</Timestamp><DateUtc dt:dt=""string"">2022-10-19T15:34:28Z</DateUtc></StartTime><FrequencyChanges><FrequencyChange><Frequency dt:dt=""r8"">3312832</Frequency><Timestamp dt:dt=""r8"">30712200466</Timestamp><Current dt:dt=""r8"">0</Current><DateUtc dt:dt=""string"">2022-10-19T15:34:28Z</DateUtc></FrequencyChange></FrequencyChanges></Clock>\n";TMS_Ibrahim-41-1;75028;100561;1;1;648072022;2010242;2010242;10/19/2022;19/10/2022 15:34;17:34:28;2010147;0;;-999999;19;31980;0;1;2142;34122;1;1;1;2;1;2;1;BlockProcFischi;BlockList;1;125;0;;-999999;13;35163;0;1;1015;36178;1;1;1;1;ProcFischi1;ListBlockFischi;39;1;1;1;0;3;Pomod_B;100;2;op;3;2;47;1;39;2;0;TrialProc;575;1318;Pomod_B;189;1868;1678;ListFischi1;0;;2;203;308440;16;13;1899;310339;347;1;1899;1;884;234;1552;1;1
TMS_Ibrahim;41;1;"<?xml version=""1.0""?>\n<Clock xmlns:dt=""urn:schemas-microsoft-com:datatypes""><Description dt:dt=""string"">E-Prime Primary Realtime Clock</Description><StartTime><Timestamp dt:dt=""int"">0</Timestamp><DateUtc dt:dt=""string"">2022-10-19T15:34:28Z</DateUtc></StartTime><FrequencyChanges><FrequencyChange><Frequency dt:dt=""r8"">3312832</Frequency><Timestamp dt:dt=""r8"">30712200466</Timestamp><Current dt:dt=""r8"">0</Current><DateUtc dt:dt=""string"">2022-10-19T15:34:28Z</DateUtc></FrequencyChange></FrequencyChanges></Clock>\n";TMS_Ibrahim-41-1;75028;100561;1;1;648072022;2010242;2010242;10/19/2022;19/10/2022 15:34;17:34:28;2010147;0;;-999999;19;31980;0;1;2142;34122;1;1;1;2;1;2;1;BlockProcFischi;BlockList;1;125;0;;-999999;13;35163;0;1;1015;36178;1;1;1;1;ProcFischi1;ListBlockFischi;40;1;1;0;1;3;Po3_B;100;2;op;3;2;34;1;40;2;0;TrialProc;1004;1315;Po3_B;70;1652;1581;ListFischi1;0;;1;201;315468;12;133;2103;317571;487;1;1671;1;407;591;1184;1;1
TMS_Ibrahim;41;1;"<?xml version=""1.0""?>\n<Clock xmlns:dt=""urn:schemas-microsoft-com:datatypes""><Description dt:dt=""string"">E-Prime Primary Realtime Clock</Description><StartTime><Timestamp dt:dt=""int"">0</Timestamp><DateUtc dt:dt=""string"">2022-10-19T15:34:28Z</DateUtc></StartTime><FrequencyChanges><FrequencyChange><Frequency dt:dt=""r8"">3312832</Frequency><Timestamp dt:dt=""r8"">30712200466</Timestamp><Current dt:dt=""r8"">0</Current><DateUtc dt:dt=""string"">2022-10-19T15:34:28Z</DateUtc></FrequencyChange></FrequencyChanges></Clock>\n";TMS_Ibrahim-41-1;75028;100561;1;1;648072022;2010242;2010242;10/19/2022;19/10/2022 15:34;17:34:28;2010147;0;;-999999;19;31980;0;1;2142;34122;1;1;1;2;1;2;1;BlockProcFischi;BlockList;1;125;0;;-999999;13;35163;0;1;1015;36178;1;1;1;1;ProcFischi1;ListBlockFischi;41;1;2;0;1;5;Pr5_B;125;1;op;5;2;9;1;41;1;0;TrialProc;1123;672;Pr5_B;297;1569;1272;ListFischi1;0;;2;203;322109;9;15;1590;323699;486;1;1590;1;320;279;1104;1;1
TMS_Ibrahim;41;1;"<?xml version=""1.0""?>\n<Clock xmlns:dt=""urn:schemas-microsoft-com:datatypes""><Description dt:dt=""string"">E-Prime Primary Realtime Clock</Description><StartTime><Timestamp dt:dt=""int"">0</Timestamp><DateUtc dt:dt=""string"">2022-10-19T15:34:28Z</DateUtc></StartTime><FrequencyChanges><FrequencyChange><Frequency dt:dt=""r8"">3312832</Frequency><Timestamp dt:dt=""r8"">30712200466</Timestamp><Current dt:dt=""r8"">0</Current><DateUtc dt:dt=""string"">2022-10-19T15:34:28Z</DateUtc></FrequencyChange></FrequencyChanges></Clock>\n";TMS_Ibrahim-41-1;75028;100561;1;1;648072022;2010242;2010242;10/19/2022;19/10/2022 15:34;17:34:28;2010147;0;;-999999;19;31980;0;1;2142;34122;1;1;1;2;1;2;1;BlockProcFischi;BlockList;1;125;0;;-999999;13;35163;0;1;1015;36178;1;1;1;1;ProcFischi1;ListBlockFischi;42;1;1;0;0;5;Po3_B;75;4;ug;5;2;50;1;42;4;1;TrialProc;1709;1313;Po3_B;103;1477;1580;ListFischi1;0;;2;201;328957;12;15;1510;330467;390;1;1510;1;433;539;1120;1;1
TMS_Ibrahim;41;1;"<?xml version=""1.0""?>\n<Clock xmlns:dt=""urn:schemas-microsoft-com:datatypes""><Description dt:dt=""string"">E-Prime Primary Realtime Clock</Description><StartTime><Timestamp dt:dt=""int"">0</Timestamp><DateUtc dt:dt=""string"">2022-10-19T15:34:28Z</DateUtc></StartTime><FrequencyChanges><FrequencyChange><Frequency dt:dt=""r8"">3312832</Frequency><Timestamp dt:dt=""r8"">30712200466</Timestamp><Current dt:dt=""r8"">0</Current><DateUtc dt:dt=""string"">2022-10-19T15:34:28Z</DateUtc></FrequencyChange></FrequencyChanges></Clock>\n";TMS_Ibrahim-41-1;75028;100561;1;1;648072022;2010242;2010242;10/19/2022;19/10/2022 15:34;17:34:28;2010147;0;;-999999;19;31980;0;1;2142;34122;1;1;1;2;1;2;1;BlockProcFischi;BlockList;1;125;0;;-999999;13;35163;0;1;1015;36178;1;1;1;1;ProcFischi1;ListBlockFischi;43;1;1;0;0;3;Po4_B;75;2;op;3;2;45;1;43;2;0;TrialProc;1707;1340;Po4_B;257;1458;1714;ListFischi1;0;;2;203;336154;12;133;2235;338389;297;1;1481;1;468;525;1184;1;1
TMS_Ibrahim;41;1;"<?xml version=""1.0""?>\n<Clock xmlns:dt=""urn:schemas-microsoft-com:datatypes""><Description dt:dt=""string"">E-Prime Primary Realtime Clock</Description><StartTime><Timestamp dt:dt=""int"">0</Timestamp><DateUtc dt:dt=""string"">2022-10-19T15:34:28Z</DateUtc></StartTime><FrequencyChanges><FrequencyChange><Frequency dt:dt=""r8"">3312832</Frequency><Timestamp dt:dt=""r8"">30712200466</Timestamp><Current dt:dt=""r8"">0</Current><DateUtc dt:dt=""string"">2022-10-19T15:34:28Z</DateUtc></FrequencyChange></FrequencyChanges></Clock>\n";TMS_Ibrahim-41-1;75028;100561;1;1;648072022;2010242;2010242;10/19/2022;19/10/2022 15:34;17:34:28;2010147;0;;-999999;19;31980;0;1;2142;34122;1;1;1;2;1;2;1;BlockProcFischi;BlockList;1;125;0;;-999999;13;35163;0;1;1015;36178;1;1;1;1;ProcFischi1;ListBlockFischi;44;1;1;1;1;3;Pomod_B;75;2;op;3;2;48;1;44;2;0;TrialProc;913;1318;Pomod_B;303;1979;1676;ListFischi1;0;;1;201;343108;15;13;1999;345107;559;1;1999;1;497;556;1440;1;1
TMS_Ibrahim;41;1;"<?xml version=""1.0""?>\n<Clock xmlns:dt=""urn:schemas-microsoft-com:datatypes""><Description dt:dt=""string"">E-Prime Primary Realtime Clock</Description><StartTime><Timestamp dt:dt=""int"">0</Timestamp><DateUtc dt:dt=""string"">2022-10-19T15:34:28Z</DateUtc></StartTime><FrequencyChanges><FrequencyChange><Frequency dt:dt=""r8"">3312832</Frequency><Timestamp dt:dt=""r8"">30712200466</Timestamp><Current dt:dt=""r8"">0</Current><DateUtc dt:dt=""string"">2022-10-19T15:34:28Z</DateUtc></FrequencyChange></FrequencyChanges></Clock>\n";TMS_Ibrahim-41-1;75028;100561;1;1;648072022;2010242;2010242;10/19/2022;19/10/2022 15:34;17:34:28;2010147;0;;-999999;19;31980;0;1;2142;34122;1;1;1;2;1;2;1;BlockProcFischi;BlockList;1;125;0;;-999999;13;35163;0;1;1015;36178;1;1;1;1;ProcFischi1;ListBlockFischi;45;1;1;0;1;5;Po4_B;75;4;ug;5;2;51;1;45;4;1;TrialProc;847;1336;Po4_B;167;1542;1710;ListFischi1;0;;2;203;350006;8;15;1565;351571;381;1;1565;1;767;366;1184;1;1
TMS_Ibrahim;41;1;"<?xml version=""1.0""?>\n<Clock xmlns:dt=""urn:schemas-microsoft-com:datatypes""><Description dt:dt=""string"">E-Prime Primary Realtime Clock</Description><StartTime><Timestamp dt:dt=""int"">0</Timestamp><DateUtc dt:dt=""string"">2022-10-19T15:34:28Z</DateUtc></StartTime><FrequencyChanges><FrequencyChange><Frequency dt:dt=""r8"">3312832</Frequency><Timestamp dt:dt=""r8"">30712200466</Timestamp><Current dt:dt=""r8"">0</Current><DateUtc dt:dt=""string"">2022-10-19T15:34:28Z</DateUtc></FrequencyChange></FrequencyChanges></Clock>\n";TMS_Ibrahim-41-1;75028;100561;1;1;648072022;2010242;2010242;10/19/2022;19/10/2022 15:34;17:34:28;2010147;0;;-999999;19;31980;0;1;2142;34122;1;1;1;2;1;2;1;BlockProcFischi;BlockList;1;125;0;;-999999;13;35163;0;1;1015;36178;1;1;1;1;ProcFischi1;ListBlockFischi;46;1;2;0;1;3;Pr8_B;150;3;ug;3;2;26;1;46;3;1;TrialProc;1161;720;Pr8_B;218;1966;1747;ListFischi1;0;;2;201;357579;19;13;1991;359570;296;1;1991;1;581;542;1695;1;1
TMS_Ibrahim;41;1;"<?xml version=""1.0""?>\n<Clock xmlns:dt=""urn:schemas-microsoft-com:datatypes""><Description dt:dt=""string"">E-Prime Primary Realtime Clock</Description><StartTime><Timestamp dt:dt=""int"">0</Timestamp><DateUtc dt:dt=""string"">2022-10-19T15:34:28Z</DateUtc></StartTime><FrequencyChanges><FrequencyChange><Frequency dt:dt=""r8"">3312832</Frequency><Timestamp dt:dt=""r8"">30712200466</Timestamp><Current dt:dt=""r8"">0</Current><DateUtc dt:dt=""string"">2022-10-19T15:34:28Z</DateUtc></FrequencyChange></FrequencyChanges></Clock>\n";TMS_Ibrahim-41-1;75028;100561;1;1;648072022;2010242;2010242;10/19/2022;19/10/2022 15:34;17:34:28;2010147;0;;-999999;19;31980;0;1;2142;34122;1;1;1;2;1;2;1;BlockProcFischi;BlockList;1;125;0;;-999999;13;35163;0;1;1015;36178;1;1;1;1;ProcFischi1;ListBlockFischi;47;1;2;0;2;5;Pr4_B;125;1;op;5;2;3;1;47;1;0;TrialProc;1070;674;Pr4_B;233;1480;1247;ListFischi1;0;;2;203;364756;12;15;1502;366258;350;1;1502;1;703;571;1152;1;1
TMS_Ibrahim;41;1;"<?xml version=""1.0""?>\n<Clock xmlns:dt=""urn:schemas-microsoft-com:datatypes""><Description dt:dt=""string"">E-Prime Primary Realtime Clock</Description><StartTime><Timestamp dt:dt=""int"">0</Timestamp><DateUtc dt:dt=""string"">2022-10-19T15:34:28Z</DateUtc></StartTime><FrequencyChanges><FrequencyChange><Frequency dt:dt=""r8"">3312832</Frequency><Timestamp dt:dt=""r8"">30712200466</Timestamp><Current dt:dt=""r8"">0</Current><DateUtc dt:dt=""string"">2022-10-19T15:34:28Z</DateUtc></FrequencyChange></FrequencyChanges></Clock>\n";TMS_Ibrahim-41-1;75028;100561;1;1;648072022;2010242;2010242;10/19/2022;19/10/2022 15:34;17:34:28;2010147;0;;-999999;19;31980;0;1;2142;34122;1;1;1;2;1;2;1;BlockProcFischi;BlockList;1;125;0;;-999999;13;35163;0;1;1015;36178;1;1;1;1;ProcFischi1;ListBlockFischi;48;1;1;0;2;3;Po5_B;75;2;op;3;2;36;1;48;2;0;TrialProc;1092;978;Po5_B;39;1432;1471;ListFischi1;0;;3;201;371875;11;1333;2575;374450;479;1;1455;1;635;258;976;1;1
TMS_Ibrahim;41;1;"<?xml version=""1.0""?>\n<Clock xmlns:dt=""urn:schemas-microsoft-com:datatypes""><Description dt:dt=""string"">E-Prime Primary Realtime Clock</Description><StartTime><Timestamp dt:dt=""int"">0</Timestamp><DateUtc dt:dt=""string"">2022-10-19T15:34:28Z</DateUtc></StartTime><FrequencyChanges><FrequencyChange><Frequency dt:dt=""r8"">3312832</Frequency><Timestamp dt:dt=""r8"">30712200466</Timestamp><Current dt:dt=""r8"">0</Current><DateUtc dt:dt=""string"">2022-10-19T15:34:28Z</DateUtc></FrequencyChange></FrequencyChanges></Clock>\n";TMS_Ibrahim-41-1;75028;100561;1;1;648072022;2010242;2010242;10/19/2022;19/10/2022 15:34;17:34:28;2010147;0;;-999999;19;31980;0;1;2142;34122;1;1;1;2;1;2;1;BlockProcFischi;BlockList;1;125;0;;-999999;13;35163;0;1;1015;36178;1;1;1;1;ProcFischi1;ListBlockFischi;49;1;1;0;0;3;Po4_B;50;2;op;3;2;35;1;49;2;0;TrialProc;710;1337;Po4_B;250;1459;1709;ListFischi1;0;;2;203;378008;9;13;1482;379490;384;1;1482;1;326;435;1098;1;1
TMS_Ibrahim;41;1;"<?xml version=""1.0""?>\n<Clock xmlns:dt=""urn:schemas-microsoft-com:datatypes""><Description dt:dt=""string"">E-Prime Primary Realtime Clock</Description><StartTime><Timestamp dt:dt=""int"">0</Timestamp><DateUtc dt:dt=""string"">2022-10-19T15:34:28Z</DateUtc></StartTime><FrequencyChanges><FrequencyChange><Frequency dt:dt=""r8"">3312832</Frequency><Timestamp dt:dt=""r8"">30712200466</Timestamp><Current dt:dt=""r8"">0</Current><DateUtc dt:dt=""string"">2022-10-19T15:34:28Z</DateUtc></FrequencyChange></FrequencyChanges></Clock>\n";TMS_Ibrahim-41-1;75028;100561;1;1;648072022;2010242;2010242;10/19/2022;19/10/2022 15:34;17:34:28;2010147;0;;-999999;19;31980;0;1;2142;34122;1;1;1;2;1;2;1;BlockProcFischi;BlockList;1;125;0;;-999999;13;35163;0;1;1015;36178;1;1;1;1;ProcFischi1;ListBlockFischi;50;1;1;0;1;3;Po5_B;50;2;op;3;2;46;1;50;2;0;TrialProc;717;983;Po5_B;69;1407;1476;ListFischi1;0;;1;201;385653;14;13;1437;387090;365;1;1437;1;448;508;1072;1;1
TMS_Ibrahim;41;1;"<?xml version=""1.0""?>\n<Clock xmlns:dt=""urn:schemas-microsoft-com:datatypes""><Description dt:dt=""string"">E-Prime Primary Realtime Clock</Description><StartTime><Timestamp dt:dt=""int"">0</Timestamp><DateUtc dt:dt=""string"">2022-10-19T15:34:28Z</DateUtc></StartTime><FrequencyChanges><FrequencyChange><Frequency dt:dt=""r8"">3312832</Frequency><Timestamp dt:dt=""r8"">30712200466</Timestamp><Current dt:dt=""r8"">0</Current><DateUtc dt:dt=""string"">2022-10-19T15:34:28Z</DateUtc></FrequencyChange></FrequencyChanges></Clock>\n";TMS_Ibrahim-41-1;75028;100561;1;1;648072022;2010242;2010242;10/19/2022;19/10/2022 15:34;17:34:28;2010147;0;;-999999;19;31980;0;1;2142;34122;1;1;1;2;1;2;1;BlockProcFischi;BlockList;1;125;0;;-999999;13;35163;0;1;1015;36178;1;1;1;1;ProcFischi1;ListBlockFischi;51;1;2;0;0;5;Pr2_B;150;1;op;5;2;6;1;51;1;0;TrialProc;1306;715;Pr2_B;63;1310;1247;ListFischi1;0;;2;203;393158;13;15;1340;394498;300;1;1340;1;389;369;1040;1;1
TMS_Ibrahim;41;1;"<?xml version=""1.0""?>\n<Clock xmlns:dt=""urn:schemas-microsoft-com:datatypes""><Description dt:dt=""string"">E-Prime Primary Realtime Clock</Description><StartTime><Timestamp dt:dt=""int"">0</Timestamp><DateUtc dt:dt=""string"">2022-10-19T15:34:28Z</DateUtc></StartTime><FrequencyChanges><FrequencyChange><Frequency dt:dt=""r8"">3312832</Frequency><Timestamp dt:dt=""r8"">30712200466</Timestamp><Current dt:dt=""r8"">0</Current><DateUtc dt:dt=""string"">2022-10-19T15:34:28Z</DateUtc></FrequencyChange></FrequencyChanges></Clock>\n";TMS_Ibrahim-41-1;75028;100561;1;1;648072022;2010242;2010242;10/19/2022;19/10/2022 15:34;17:34:28;2010147;0;;-999999;19;31980;0;1;2142;34122;1;1;1;2;1;2;1;BlockProcFischi;BlockList;1;125;0;;-999999;13;35163;0;1;1015;36178;1;1;1;1;ProcFischi1;ListBlockFischi;52;1;1;0;2;5;Po5_B;75;4;ug;5;2;57;1;52;4;1;TrialProc;735;978;Po5_B;11;1461;1472;ListFischi1;0;;1;201;400519;9;15;1482;402001;251;1;1482;1;563;239;1231;1;1
TMS_Ibrahim;41;1;"<?xml version=""1.0""?>\n<Clock xmlns:dt=""urn:schemas-microsoft-com:datatypes""><Description dt:dt=""string"">E-Prime Primary Realtime Clock</Description><StartTime><Timestamp dt:dt=""int"">0</Timestamp><DateUtc dt:dt=""string"">2022-10-19T15:34:28Z</DateUtc></StartTime><FrequencyChanges><FrequencyChange><Frequency dt:dt=""r8"">3312832</Frequency><Timestamp dt:dt=""r8"">30712200466</Timestamp><Current dt:dt=""r8"">0</Current><DateUtc dt:dt=""string"">2022-10-19T15:34:28Z</DateUtc></FrequencyChange></FrequencyChanges></Clock>\n";TMS_Ibrahim-41-1;75028;100561;1;1;648072022;2010242;2010242;10/19/2022;19/10/2022 15:34;17:34:28;2010147;0;;-999999;19;31980;0;1;2142;34122;1;1;1;2;1;2;1;BlockProcFischi;BlockList;1;125;0;;-999999;13;35163;0;1;1015;36178;1;1;1;1;ProcFischi1;ListBlockFischi;53;1;2;0;0;5;Pr5_B;125;1;op;5;2;14;1;53;1;0;TrialProc;708;675;Pr5_B;942;2215;1274;ListFischi1;0;;2;203;407913;12;155;2488;410401;136;1;2248;1;949;396;2112;1;1
TMS_Ibrahim;41;1;"<?xml version=""1.0""?>\n<Clock xmlns:dt=""urn:schemas-microsoft-com:datatypes""><Description dt:dt=""string"">E-Prime Primary Realtime Clock</Description><StartTime><Timestamp dt:dt=""int"">0</Timestamp><DateUtc dt:dt=""string"">2022-10-19T15:34:28Z</DateUtc></StartTime><FrequencyChanges><FrequencyChange><Frequency dt:dt=""r8"">3312832</Frequency><Timestamp dt:dt=""r8"">30712200466</Timestamp><Current dt:dt=""r8"">0</Current><DateUtc dt:dt=""string"">2022-10-19T15:34:28Z</DateUtc></FrequencyChange></FrequencyChanges></Clock>\n";TMS_Ibrahim-41-1;75028;100561;1;1;648072022;2010242;2010242;10/19/2022;19/10/2022 15:34;17:34:28;2010147;0;;-999999;19;31980;0;1;2142;34122;1;1;1;2;1;2;1;BlockProcFischi;BlockList;1;125;0;;-999999;13;35163;0;1;1015;36178;1;1;1;1;ProcFischi1;ListBlockFischi;54;1;2;0;2;3;Pr5_B;150;3;ug;3;2;25;1;54;3;1;TrialProc;750;6000;Pr5_B;229;6000;6000;ListFischi1;0;;1;201;413779;11;13;1534;415313;478;1;1534;1;435;401;1056;1;1
TMS_Ibrahim;41;1;"<?xml version=""1.0""?>\n<Clock xmlns:dt=""urn:schemas-microsoft-com:datatypes""><Description dt:dt=""string"">E-Prime Primary Realtime Clock</Description><StartTime><Timestamp dt:dt=""int"">0</Timestamp><DateUtc dt:dt=""string"">2022-10-19T15:34:28Z</DateUtc></StartTime><FrequencyChanges><FrequencyChange><Frequency dt:dt=""r8"">3312832</Frequency><Timestamp dt:dt=""r8"">30712200466</Timestamp><Current dt:dt=""r8"">0</Current><DateUtc dt:dt=""string"">2022-10-19T15:34:28Z</DateUtc></FrequencyChange></FrequencyChanges></Clock>\n";TMS_Ibrahim-41-1;75028;100561;1;1;648072022;2010242;2010242;10/19/2022;19/10/2022 15:34;17:34:28;2010147;0;;-999999;19;31980;0;1;2142;34122;1;1;1;2;1;2;1;BlockProcFischi;BlockList;1;125;0;;-999999;13;35163;0;1;1015;36178;1;1;1;1;ProcFischi1;ListBlockFischi;55;1;2;0;0;3;Pr2_B;175;3;ug;3;2;22;1;55;3;1;TrialProc;882;712;Pr2_B;12;1233;1246;ListFischi1;0;;1;203;420644;10;13;1261;421905;285;1;1261;1;358;594;976;1;1
TMS_Ibrahim;41;1;"<?xml version=""1.0""?>\n<Clock xmlns:dt=""urn:schemas-microsoft-com:datatypes""><Description dt:dt=""string"">E-Prime Primary Realtime Clock</Description><StartTime><Timestamp dt:dt=""int"">0</Timestamp><DateUtc dt:dt=""string"">2022-10-19T15:34:28Z</DateUtc></StartTime><FrequencyChanges><FrequencyChange><Frequency dt:dt=""r8"">3312832</Frequency><Timestamp dt:dt=""r8"">30712200466</Timestamp><Current dt:dt=""r8"">0</Current><DateUtc dt:dt=""string"">2022-10-19T15:34:28Z</DateUtc></FrequencyChange></FrequencyChanges></Clock>\n";TMS_Ibrahim-41-1;75028;100561;1;1;648072022;2010242;2010242;10/19/2022;19/10/2022 15:34;17:34:28;2010147;0;;-999999;19;31980;0;1;2142;34122;1;1;1;2;1;2;1;BlockProcFischi;BlockList;1;125;0;;-999999;13;35163;0;1;1015;36178;1;1;1;1;ProcFischi1;ListBlockFischi;56;1;1;0;1;3;Po2_B;50;2;op;3;2;33;1;56;2;0;TrialProc;1418;1580;Po2_B;9;1797;1806;ListFischi1;0;;2;201;428013;11;13;1828;429841;308;1;1828;1;419;583;1520;1;1
TMS_Ibrahim;41;1;"<?xml version=""1.0""?>\n<Clock xmlns:dt=""urn:schemas-microsoft-com:datatypes""><Description dt:dt=""string"">E-Prime Primary Realtime Clock</Description><StartTime><Timestamp dt:dt=""int"">0</Timestamp><DateUtc dt:dt=""string"">2022-10-19T15:34:28Z</DateUtc></StartTime><FrequencyChanges><FrequencyChange><Frequency dt:dt=""r8"">3312832</Frequency><Timestamp dt:dt=""r8"">30712200466</Timestamp><Current dt:dt=""r8"">0</Current><DateUtc dt:dt=""string"">2022-10-19T15:34:28Z</DateUtc></FrequencyChange></FrequencyChanges></Clock>\n";TMS_Ibrahim-41-1;75028;100561;1;1;648072022;2010242;2010242;10/19/2022;19/10/2022 15:34;17:34:28;2010147;0;;-999999;19;31980;0;1;2142;34122;1;1;1;2;1;2;1;BlockProcFischi;BlockList;1;125;0;;-999999;13;35163;0;1;1015;36178;1;1;1;1;ProcFischi1;ListBlockFischi;57;1;1;1;0;5;Pomod_B;50;4;ug;5;2;64;1;57;4;1;TrialProc;790;1313;Pomod_B;217;1890;1673;ListFischi1;0;;2;203;435103;12;155;3090;438193;610;1;1922;1;384;249;1312;1;1
TMS_Ibrahim;41;1;"<?xml version=""1.0""?>\n<Clock xmlns:dt=""urn:schemas-microsoft-com:datatypes""><Description dt:dt=""string"">E-Prime Primary Realtime Clock</Description><StartTime><Timestamp dt:dt=""int"">0</Timestamp><DateUtc dt:dt=""string"">2022-10-19T15:34:28Z</DateUtc></StartTime><FrequencyChanges><FrequencyChange><Frequency dt:dt=""r8"">3312832</Frequency><Timestamp dt:dt=""r8"">30712200466</Timestamp><Current dt:dt=""r8"">0</Current><DateUtc dt:dt=""string"">2022-10-19T15:34:28Z</DateUtc></FrequencyChange></FrequencyChanges></Clock>\n";TMS_Ibrahim-41-1;75028;100561;1;1;648072022;2010242;2010242;10/19/2022;19/10/2022 15:34;17:34:28;2010147;0;;-999999;19;31980;0;1;2142;34122;1;1;1;2;1;2;1;BlockProcFischi;BlockList;1;125;0;;-999999;13;35163;0;1;1015;36178;1;1;1;1;ProcFischi1;ListBlockFischi;58;1;1;0;1;5;Po8_B;50;4;ug;5;2;53;1;58;4;1;TrialProc;1247;1248;Po8_B;75;1656;1581;ListFischi1;0;;2;201;442273;13;15;1680;443953;368;1;1680;1;409;582;1312;1;1
TMS_Ibrahim;41;1;"<?xml version=""1.0""?>\n<Clock xmlns:dt=""urn:schemas-microsoft-com:datatypes""><Description dt:dt=""string"">E-Prime Primary Realtime Clock</Description><StartTime><Timestamp dt:dt=""int"">0</Timestamp><DateUtc dt:dt=""string"">2022-10-19T15:34:28Z</DateUtc></StartTime><FrequencyChanges><FrequencyChange><Frequency dt:dt=""r8"">3312832</Frequency><Timestamp dt:dt=""r8"">30712200466</Timestamp><Current dt:dt=""r8"">0</Current><DateUtc dt:dt=""string"">2022-10-19T15:34:28Z</DateUtc></FrequencyChange></FrequencyChanges></Clock>\n";TMS_Ibrahim-41-1;75028;100561;1;1;648072022;2010242;2010242;10/19/2022;19/10/2022 15:34;17:34:28;2010147;0;;-999999;19;31980;0;1;2142;34122;1;1;1;2;1;2;1;BlockProcFischi;BlockList;1;125;0;;-999999;13;35163;0;1;1015;36178;1;1;1;1;ProcFischi1;ListBlockFischi;59;1;2;0;1;5;Pr4_B;125;1;op;5;2;13;1;59;1;0;TrialProc;691;671;Pr4_B;280;1525;1244;ListFischi1;0;;2;203;449607;9;15;1545;451152;442;1;1545;1;502;244;1103;1;1
TMS_Ibrahim;41;1;"<?xml version=""1.0""?>\n<Clock xmlns:dt=""urn:schemas-microsoft-com:datatypes""><Description dt:dt=""string"">E-Prime Primary Realtime Clock</Description><StartTime><Timestamp dt:dt=""int"">0</Timestamp><DateUtc dt:dt=""string"">2022-10-19T15:34:28Z</DateUtc></StartTime><FrequencyChanges><FrequencyChange><Frequency dt:dt=""r8"">3312832</Frequency><Timestamp dt:dt=""r8"">30712200466</Timestamp><Current dt:dt=""r8"">0</Current><DateUtc dt:dt=""string"">2022-10-19T15:34:28Z</DateUtc></FrequencyChange></FrequencyChanges></Clock>\n";TMS_Ibrahim-41-1;75028;100561;1;1;648072022;2010242;2010242;10/19/2022;19/10/2022 15:34;17:34:28;2010147;0;;-999999;19;31980;0;1;2142;34122;1;1;1;2;1;2;1;BlockProcFischi;BlockList;1;125;0;;-999999;13;35163;0;1;1015;36178;1;1;1;1;ProcFischi1;ListBlockFischi;60;1;2;0;0;3;Pr3_B;150;3;ug;3;2;23;1;60;3;1;TrialProc;696;717;Pr3_B;37;1753;1716;ListFischi1;0;;1;201;456747;13;13;1781;458528;390;1;1781;1;412;308;1391;1;1
TMS_Ibrahim;41;1;"<?xml version=""1.0""?>\n<Clock xmlns:dt=""urn:schemas-microsoft-com:datatypes""><Description dt:dt=""string"">E-Prime Primary Realtime Clock</Description><StartTime><Timestamp dt:dt=""int"">0</Timestamp><DateUtc dt:dt=""string"">2022-10-19T15:34:28Z</DateUtc></StartTime><FrequencyChanges><FrequencyChange><Frequency dt:dt=""r8"">3312832</Frequency><Timestamp dt:dt=""r8"">30712200466</Timestamp><Current dt:dt=""r8"">0</Current><DateUtc dt:dt=""string"">2022-10-19T15:34:28Z</DateUtc></FrequencyChange></FrequencyChanges></Clock>\n";TMS_Ibrahim-41-1;75028;100561;1;1;648072022;2010242;2010242;10/19/2022;19/10/2022 15:34;17:34:28;2010147;0;;-999999;19;31980;0;1;2142;34122;1;1;1;2;1;2;1;BlockProcFischi;BlockList;1;125;0;;-999999;13;35163;0;1;1015;36178;1;1;1;1;ProcFischi1;ListBlockFischi;61;1;2;0;0;3;Pr2_B;125;3;ug;3;2;27;1;61;3;1;TrialProc;798;715;Pr2_B;34;1215;1248;ListFischi1;0;;2;203;463757;14;13;1235;464992;451;1;1235;1;420;365;784;1;1
TMS_Ibrahim;41;1;"<?xml version=""1.0""?>\n<Clock xmlns:dt=""urn:schemas-microsoft-com:datatypes""><Description dt:dt=""string"">E-Prime Primary Realtime Clock</Description><StartTime><Timestamp dt:dt=""int"">0</Timestamp><DateUtc dt:dt=""string"">2022-10-19T15:34:28Z</DateUtc></StartTime><FrequencyChanges><FrequencyChange><Frequency dt:dt=""r8"">3312832</Frequency><Timestamp dt:dt=""r8"">30712200466</Timestamp><Current dt:dt=""r8"">0</Current><DateUtc dt:dt=""string"">2022-10-19T15:34:28Z</DateUtc></FrequencyChange></FrequencyChanges></Clock>\n";TMS_Ibrahim-41-1;75028;100561;1;1;648072022;2010242;2010242;10/19/2022;19/10/2022 15:34;17:34:28;2010147;0;;-999999;19;31980;0;1;2142;34122;1;1;1;2;1;2;1;BlockProcFischi;BlockList;1;125;0;;-999999;13;35163;0;1;1015;36178;1;1;1;1;ProcFischi1;ListBlockFischi;62;1;2;0;0;3;Pr5_B;100;3;ug;3;2;20;1;62;3;1;TrialProc;776;673;Pr5_B;318;1591;1272;ListFischi1;0;;1;201;470825;10;13;1623;472448;520;1;1623;1;407;453;1103;1;1
TMS_Ibrahim;41;1;"<?xml version=""1.0""?>\n<Clock xmlns:dt=""urn:schemas-microsoft-com:datatypes""><Description dt:dt=""string"">E-Prime Primary Realtime Clock</Description><StartTime><Timestamp dt:dt=""int"">0</Timestamp><DateUtc dt:dt=""string"">2022-10-19T15:34:28Z</DateUtc></StartTime><FrequencyChanges><FrequencyChange><Frequency dt:dt=""r8"">3312832</Frequency><Timestamp dt:dt=""r8"">30712200466</Timestamp><Current dt:dt=""r8"">0</Current><DateUtc dt:dt=""string"">2022-10-19T15:34:28Z</DateUtc></FrequencyChange></FrequencyChanges></Clock>\n";TMS_Ibrahim-41-1;75028;100561;1;1;648072022;2010242;2010242;10/19/2022;19/10/2022 15:34;17:34:28;2010147;0;;-999999;19;31980;0;1;2142;34122;1;1;1;2;1;2;1;BlockProcFischi;BlockList;1;125;0;;-999999;13;35163;0;1;1015;36178;1;1;1;1;ProcFischi1;ListBlockFischi;63;1;1;0;1;5;Po2_B;50;4;ug;5;2;59;1;63;4;1;TrialProc;859;1578;Po2_B;51;1856;1804;ListFischi1;0;;2;203;477677;9;15;1875;479552;579;1;1875;1;313;444;1296;1;1
TMS_Ibrahim;41;1;"<?xml version=""1.0""?>\n<Clock xmlns:dt=""urn:schemas-microsoft-com:datatypes""><Description dt:dt=""string"">E-Prime Primary Realtime Clock</Description><StartTime><Timestamp dt:dt=""int"">0</Timestamp><DateUtc dt:dt=""string"">2022-10-19T15:34:28Z</DateUtc></StartTime><FrequencyChanges><FrequencyChange><Frequency dt:dt=""r8"">3312832</Frequency><Timestamp dt:dt=""r8"">30712200466</Timestamp><Current dt:dt=""r8"">0</Current><DateUtc dt:dt=""string"">2022-10-19T15:34:28Z</DateUtc></FrequencyChange></FrequencyChanges></Clock>\n";TMS_Ibrahim-41-1;75028;100561;1;1;648072022;2010242;2010242;10/19/2022;19/10/2022 15:34;17:34:28;2010147;0;;-999999;19;31980;0;1;2142;34122;1;1;1;2;1;2;1;BlockProcFischi;BlockList;1;125;0;;-999999;13;35163;0;1;1015;36178;1;1;1;1;ProcFischi1;ListBlockFischi;64;1;1;0;1;5;Po2_B;50;4;ug;5;2;54;1;64;4;1;TrialProc;1393;1579;Po2_B;25;1829;1805;ListFischi1;0;;2;201;484659;11;155;2621;487280;669;1;1853;1;991;232;1184;1;1
TMS_Ibrahim;41;3;"<?xml version=""1.0""?>\n<Clock xmlns:dt=""urn:schemas-microsoft-com:datatypes""><Description dt:dt=""string"">E-Prime Primary Realtime Clock</Description><StartTime><Timestamp dt:dt=""int"">0</Timestamp><DateUtc dt:dt=""string"">2022-10-19T16:36:07Z</DateUtc></StartTime><FrequencyChanges><FrequencyChange><Frequency dt:dt=""r8"">3312832</Frequency><Timestamp dt:dt=""r8"">42968332159</Timestamp><Current dt:dt=""r8"">0</Current><DateUtc dt:dt=""string"">2022-10-19T16:36:07Z</DateUtc></FrequencyChange></FrequencyChanges></Clock>\n";TMS_Ibrahim-41-3;75028;100561;1;;19288381;2010242;2010242;10/19/2022;19/10/2022 16:36;18:36:07;2010147;0;;-999999;25;22296;0;1;1916;24212;1;1;1;2;1;0;1;BlockProcFischi;BlockList;1;75;0;;-999999;32;25854;0;1;1047;26901;1;1;1;1;ProcFischi1;ListBlockFischi;1;1;1;1;0;5;Pomod_B;250;4;ug;5;2;63;1;1;4;1;TrialProc;1236;1372;Pomod_B;455;2159;1704;ListFischi1;0;;5;210;29564;33;15;2184;31748;328;1;2184;1;462;487;1856;1;1
TMS_Ibrahim;41;3;"<?xml version=""1.0""?>\n<Clock xmlns:dt=""urn:schemas-microsoft-com:datatypes""><Description dt:dt=""string"">E-Prime Primary Realtime Clock</Description><StartTime><Timestamp dt:dt=""int"">0</Timestamp><DateUtc dt:dt=""string"">2022-10-19T16:36:07Z</DateUtc></StartTime><FrequencyChanges><FrequencyChange><Frequency dt:dt=""r8"">3312832</Frequency><Timestamp dt:dt=""r8"">42968332159</Timestamp><Current dt:dt=""r8"">0</Current><DateUtc dt:dt=""string"">2022-10-19T16:36:07Z</DateUtc></FrequencyChange></FrequencyChanges></Clock>\n";TMS_Ibrahim-41-3;75028;100561;1;;19288381;2010242;2010242;10/19/2022;19/10/2022 16:36;18:36:07;2010147;0;;-999999;25;22296;0;1;1916;24212;1;1;1;2;1;0;1;BlockProcFischi;BlockList;1;75;0;;-999999;32;25854;0;1;1047;26901;1;1;1;1;ProcFischi1;ListBlockFischi;2;1;2;0;0;5;Pr2_B;250;1;op;5;2;6;1;2;1;0;TrialProc;684;709;Pr2_B;336;1578;1242;ListFischi1;0;;1;207;36573;8;15;1606;38179;422;1;1606;1;419;370;1184;1;1
TMS_Ibrahim;41;3;"<?xml version=""1.0""?>\n<Clock xmlns:dt=""urn:schemas-microsoft-com:datatypes""><Description dt:dt=""string"">E-Prime Primary Realtime Clock</Description><StartTime><Timestamp dt:dt=""int"">0</Timestamp><DateUtc dt:dt=""string"">2022-10-19T16:36:07Z</DateUtc></StartTime><FrequencyChanges><FrequencyChange><Frequency dt:dt=""r8"">3312832</Frequency><Timestamp dt:dt=""r8"">42968332159</Timestamp><Current dt:dt=""r8"">0</Current><DateUtc dt:dt=""string"">2022-10-19T16:36:07Z</DateUtc></FrequencyChange></FrequencyChanges></Clock>\n";TMS_Ibrahim-41-3;75028;100561;1;;19288381;2010242;2010242;10/19/2022;19/10/2022 16:36;18:36:07;2010147;0;;-999999;25;22296;0;1;1916;24212;1;1;1;2;1;0;1;BlockProcFischi;BlockList;1;75;0;;-999999;32;25854;0;1;1047;26901;1;1;1;1;ProcFischi1;ListBlockFischi;3;1;1;0;0;3;Po5_B;250;2;op;3;2;41;1;3;2;0;TrialProc;710;982;Po5_B;39;1512;1474;ListFischi1;0;;2;203;43353;12;13;1546;44899;394;1;1546;1;433;260;1152;1;1
TMS_Ibrahim;41;3;"<?xml version=""1.0""?>\n<Clock xmlns:dt=""urn:schemas-microsoft-com:datatypes""><Description dt:dt=""string"">E-Prime Primary Realtime Clock</Description><StartTime><Timestamp dt:dt=""int"">0</Timestamp><DateUtc dt:dt=""string"">2022-10-19T16:36:07Z</DateUtc></StartTime><FrequencyChanges><FrequencyChange><Frequency dt:dt=""r8"">3312832</Frequency><Timestamp dt:dt=""r8"">42968332159</Timestamp><Current dt:dt=""r8"">0</Current><DateUtc dt:dt=""string"">2022-10-19T16:36:07Z</DateUtc></FrequencyChange></FrequencyChanges></Clock>\n";TMS_Ibrahim-41-3;75028;100561;1;;19288381;2010242;2010242;10/19/2022;19/10/2022 16:36;18:36:07;2010147;0;;-999999;25;22296;0;1;1916;24212;1;1;1;2;1;0;1;BlockProcFischi;BlockList;1;75;0;;-999999;32;25854;0;1;1047;26901;1;1;1;1;ProcFischi1;ListBlockFischi;4;1;1;0;1;5;Po8_B;250;4;ug;5;2;58;1;4;4;1;TrialProc;833;1241;Po8_B;50;1624;1574;ListFischi1;0;;2;201;50622;7;155;3381;54003;373;1;1653;1;568;319;1280;1;1
TMS_Ibrahim;41;3;"<?xml version=""1.0""?>\n<Clock xmlns:dt=""urn:schemas-microsoft-com:datatypes""><Description dt:dt=""string"">E-Prime Primary Realtime Clock</Description><StartTime><Timestamp dt:dt=""int"">0</Timestamp><DateUtc dt:dt=""string"">2022-10-19T16:36:07Z</DateUtc></StartTime><FrequencyChanges><FrequencyChange><Frequency dt:dt=""r8"">3312832</Frequency><Timestamp dt:dt=""r8"">42968332159</Timestamp><Current dt:dt=""r8"">0</Current><DateUtc dt:dt=""string"">2022-10-19T16:36:07Z</DateUtc></FrequencyChange></FrequencyChanges></Clock>\n";TMS_Ibrahim-41-3;75028;100561;1;;19288381;2010242;2010242;10/19/2022;19/10/2022 16:36;18:36:07;2010147;0;;-999999;25;22296;0;1;1916;24212;1;1;1;2;1;0;1;BlockProcFischi;BlockList;1;75;0;;-999999;32;25854;0;1;1047;26901;1;1;1;1;ProcFischi1;ListBlockFischi;5;1;2;0;1;5;Pr8_B;250;1;op;5;2;5;1;5;1;0;TrialProc;676;709;Pr8_B;178;1913;1735;ListFischi1;0;;2;203;57845;8;15;1934;59779;846;1;1934;1;239;467;1088;1;1
TMS_Ibrahim;41;3;"<?xml version=""1.0""?>\n<Clock xmlns:dt=""urn:schemas-microsoft-com:datatypes""><Description dt:dt=""string"">E-Prime Primary Realtime Clock</Description><StartTime><Timestamp dt:dt=""int"">0</Timestamp><DateUtc dt:dt=""string"">2022-10-19T16:36:07Z</DateUtc></StartTime><FrequencyChanges><FrequencyChange><Frequency dt:dt=""r8"">3312832</Frequency><Timestamp dt:dt=""r8"">42968332159</Timestamp><Current dt:dt=""r8"">0</Current><DateUtc dt:dt=""string"">2022-10-19T16:36:07Z</DateUtc></FrequencyChange></FrequencyChanges></Clock>\n";TMS_Ibrahim-41-3;75028;100561;1;;19288381;2010242;2010242;10/19/2022;19/10/2022 16:36;18:36:07;2010147;0;;-999999;25;22296;0;1;1916;24212;1;1;1;2;1;0;1;BlockProcFischi;BlockList;1;75;0;;-999999;32;25854;0;1;1047;26901;1;1;1;1;ProcFischi1;ListBlockFischi;6;1;1;0;0;3;Po5_B;225;2;op;3;2;36;1;6;2;0;TrialProc;767;979;Po5_B;145;1327;1473;ListFischi1;0;;2;201;64852;11;13;1359;66211;31;1;1359;1;262;499;1328;1;1
TMS_Ibrahim;41;3;"<?xml version=""1.0""?>\n<Clock xmlns:dt=""urn:schemas-microsoft-com:datatypes""><Description dt:dt=""string"">E-Prime Primary Realtime Clock</Description><StartTime><Timestamp dt:dt=""int"">0</Timestamp><DateUtc dt:dt=""string"">2022-10-19T16:36:07Z</DateUtc></StartTime><FrequencyChanges><FrequencyChange><Frequency dt:dt=""r8"">3312832</Frequency><Timestamp dt:dt=""r8"">42968332159</Timestamp><Current dt:dt=""r8"">0</Current><DateUtc dt:dt=""string"">2022-10-19T16:36:07Z</DateUtc></FrequencyChange></FrequencyChanges></Clock>\n";TMS_Ibrahim-41-3;75028;100561;1;;19288381;2010242;2010242;10/19/2022;19/10/2022 16:36;18:36:07;2010147;0;;-999999;25;22296;0;1;1916;24212;1;1;1;2;1;0;1;BlockProcFischi;BlockList;1;75;0;;-999999;32;25854;0;1;1047;26901;1;1;1;1;ProcFischi1;ListBlockFischi;7;1;1;0;0;5;Po3_B;225;4;ug;5;2;55;1;7;4;1;TrialProc;599;1313;Po3_B;4;1575;1580;ListFischi1;0;;2;203;72381;13;1555;2406;74787;134;1;1606;1;614;451;1472;1;1
TMS_Ibrahim;41;3;"<?xml version=""1.0""?>\n<Clock xmlns:dt=""urn:schemas-microsoft-com:datatypes""><Description dt:dt=""string"">E-Prime Primary Realtime Clock</Description><StartTime><Timestamp dt:dt=""int"">0</Timestamp><DateUtc dt:dt=""string"">2022-10-19T16:36:07Z</DateUtc></StartTime><FrequencyChanges><FrequencyChange><Frequency dt:dt=""r8"">3312832</Frequency><Timestamp dt:dt=""r8"">42968332159</Timestamp><Current dt:dt=""r8"">0</Current><DateUtc dt:dt=""string"">2022-10-19T16:36:07Z</DateUtc></FrequencyChange></FrequencyChanges></Clock>\n";TMS_Ibrahim-41-3;75028;100561;1;;19288381;2010242;2010242;10/19/2022;19/10/2022 16:36;18:36:07;2010147;0;;-999999;25;22296;0;1;1916;24212;1;1;1;2;1;0;1;BlockProcFischi;BlockList;1;75;0;;-999999;32;25854;0;1;1047;26901;1;1;1;1;ProcFischi1;ListBlockFischi;8;1;1;0;0;5;Po8_B;200;4;ug;5;2;53;1;8;4;1;TrialProc;1197;1247;Po8_B;22;1600;1579;ListFischi1;0;;2;201;79153;12;15;1634;80787;323;1;1634;1;245;310;1311;1;1
TMS_Ibrahim;41;3;"<?xml version=""1.0""?>\n<Clock xmlns:dt=""urn:schemas-microsoft-com:datatypes""><Description dt:dt=""string"">E-Prime Primary Realtime Clock</Description><StartTime><Timestamp dt:dt=""int"">0</Timestamp><DateUtc dt:dt=""string"">2022-10-19T16:36:07Z</DateUtc></StartTime><FrequencyChanges><FrequencyChange><Frequency dt:dt=""r8"">3312832</Frequency><Timestamp dt:dt=""r8"">42968332159</Timestamp><Current dt:dt=""r8"">0</Current><DateUtc dt:dt=""string"">2022-10-19T16:36:07Z</DateUtc></FrequencyChange></FrequencyChanges></Clock>\n";TMS_Ibrahim-41-3;75028;100561;1;;19288381;2010242;2010242;10/19/2022;19/10/2022 16:36;18:36:07;2010147;0;;-999999;25;22296;0;1;1916;24212;1;1;1;2;1;0;1;BlockProcFischi;BlockList;1;75;0;;-999999;32;25854;0;1;1047;26901;1;1;1;1;ProcFischi1;ListBlockFischi;9;1;2;0;0;5;Pr4_B;225;1;op;5;2;13;1;9;1;0;TrialProc;598;675;Pr4_B;1429;2677;1248;ListFischi1;0;;2;203;86336;13;15;2706;89042;402;1;2706;1;1628;567;2304;1;1
TMS_Ibrahim;41;3;"<?xml version=""1.0""?>\n<Clock xmlns:dt=""urn:schemas-microsoft-com:datatypes""><Description dt:dt=""string"">E-Prime Primary Realtime Clock</Description><StartTime><Timestamp dt:dt=""int"">0</Timestamp><DateUtc dt:dt=""string"">2022-10-19T16:36:07Z</DateUtc></StartTime><FrequencyChanges><FrequencyChange><Frequency dt:dt=""r8"">3312832</Frequency><Timestamp dt:dt=""r8"">42968332159</Timestamp><Current dt:dt=""r8"">0</Current><DateUtc dt:dt=""string"">2022-10-19T16:36:07Z</DateUtc></FrequencyChange></FrequencyChanges></Clock>\n";TMS_Ibrahim-41-3;75028;100561;1;;19288381;2010242;2010242;10/19/2022;19/10/2022 16:36;18:36:07;2010147;0;;-999999;25;22296;0;1;1916;24212;1;1;1;2;1;0;1;BlockProcFischi;BlockList;1;75;0;;-999999;32;25854;0;1;1047;26901;1;1;1;1;ProcFischi1;ListBlockFischi;10;1;2;0;0;3;Pr4_B;250;3;ug;3;2;19;1;10;3;1;TrialProc;517;675;Pr4_B;129;1377;1248;ListFischi1;0;;2;201;92399;14;133;1795;94194;435;1;1411;1;1341;448;976;1;1
TMS_Ibrahim;41;3;"<?xml version=""1.0""?>\n<Clock xmlns:dt=""urn:schemas-microsoft-com:datatypes""><Description dt:dt=""string"">E-Prime Primary Realtime Clock</Description><StartTime><Timestamp dt:dt=""int"">0</Timestamp><DateUtc dt:dt=""string"">2022-10-19T16:36:07Z</DateUtc></StartTime><FrequencyChanges><FrequencyChange><Frequency dt:dt=""r8"">3312832</Frequency><Timestamp dt:dt=""r8"">42968332159</Timestamp><Current dt:dt=""r8"">0</Current><DateUtc dt:dt=""string"">2022-10-19T16:36:07Z</DateUtc></FrequencyChange></FrequencyChanges></Clock>\n";TMS_Ibrahim-41-3;75028;100561;1;;19288381;2010242;2010242;10/19/2022;19/10/2022 16:36;18:36:07;2010147;0;;-999999;25;22296;0;1;1916;24212;1;1;1;2;1;0;1;BlockProcFischi;BlockList;1;75;0;;-999999;32;25854;0;1;1047;26901;1;1;1;1;ProcFischi1;ListBlockFischi;11;1;1;0;0;3;Po4_B;200;2;op;3;2;35;1;11;2;0;TrialProc;504;1344;Po4_B;295;1423;1717;ListFischi1;0;;2;203;99075;15;133;3295;102370;239;1;1455;1;490;275;1216;1;1
TMS_Ibrahim;41;3;"<?xml version=""1.0""?>\n<Clock xmlns:dt=""urn:schemas-microsoft-com:datatypes""><Description dt:dt=""string"">E-Prime Primary Realtime Clock</Description><StartTime><Timestamp dt:dt=""int"">0</Timestamp><DateUtc dt:dt=""string"">2022-10-19T16:36:07Z</DateUtc></StartTime><FrequencyChanges><FrequencyChange><Frequency dt:dt=""r8"">3312832</Frequency><Timestamp dt:dt=""r8"">42968332159</Timestamp><Current dt:dt=""r8"">0</Current><DateUtc dt:dt=""string"">2022-10-19T16:36:07Z</DateUtc></FrequencyChange></FrequencyChanges></Clock>\n";TMS_Ibrahim-41-3;75028;100561;1;;19288381;2010242;2010242;10/19/2022;19/10/2022 16:36;18:36:07;2010147;0;;-999999;25;22296;0;1;1916;24212;1;1;1;2;1;0;1;BlockProcFischi;BlockList;1;75;0;;-999999;32;25854;0;1;1047;26901;1;1;1;1;ProcFischi1;ListBlockFischi;12;1;1;0;0;5;Po5_B;175;4;ug;5;2;52;1;12;4;1;TrialProc;597;977;Po5_B;79;1549;1471;ListFischi1;0;;2;203;106625;9;15;1585;108210;177;1;1585;1;421;324;1408;1;1
TMS_Ibrahim;41;3;"<?xml version=""1.0""?>\n<Clock xmlns:dt=""urn:schemas-microsoft-com:datatypes""><Description dt:dt=""string"">E-Prime Primary Realtime Clock</Description><StartTime><Timestamp dt:dt=""int"">0</Timestamp><DateUtc dt:dt=""string"">2022-10-19T16:36:07Z</DateUtc></StartTime><FrequencyChanges><FrequencyChange><Frequency dt:dt=""r8"">3312832</Frequency><Timestamp dt:dt=""r8"">42968332159</Timestamp><Current dt:dt=""r8"">0</Current><DateUtc dt:dt=""string"">2022-10-19T16:36:07Z</DateUtc></FrequencyChange></FrequencyChanges></Clock>\n";TMS_Ibrahim-41-3;75028;100561;1;;19288381;2010242;2010242;10/19/2022;19/10/2022 16:36;18:36:07;2010147;0;;-999999;25;22296;0;1;1916;24212;1;1;1;2;1;0;1;BlockProcFischi;BlockList;1;75;0;;-999999;32;25854;0;1;1047;26901;1;1;1;1;ProcFischi1;ListBlockFischi;13;1;1;0;1;3;Po3_B;200;2;op;3;2;44;1;13;2;0;TrialProc;513;1314;Po3_B;29;1552;1581;ListFischi1;0;;3;201;113897;15;13;1577;115474;377;1;1577;1;378;558;1200;1;1
TMS_Ibrahim;41;3;"<?xml version=""1.0""?>\n<Clock xmlns:dt=""urn:schemas-microsoft-com:datatypes""><Description dt:dt=""string"">E-Prime Primary Realtime Clock</Description><StartTime><Timestamp dt:dt=""int"">0</Timestamp><DateUtc dt:dt=""string"">2022-10-19T16:36:07Z</DateUtc></StartTime><FrequencyChanges><FrequencyChange><Frequency dt:dt=""r8"">3312832</Frequency><Timestamp dt:dt=""r8"">42968332159</Timestamp><Current dt:dt=""r8"">0</Current><DateUtc dt:dt=""string"">2022-10-19T16:36:07Z</DateUtc></FrequencyChange></FrequencyChanges></Clock>\n";TMS_Ibrahim-41-3;75028;100561;1;;19288381;2010242;2010242;10/19/2022;19/10/2022 16:36;18:36:07;2010147;0;;-999999;25;22296;0;1;1916;24212;1;1;1;2;1;0;1;BlockProcFischi;BlockList;1;75;0;;-999999;32;25854;0;1;1047;26901;1;1;1;1;ProcFischi1;ListBlockFischi;14;1;1;0;0;3;Po2_B;175;2;op;3;2;38;1;14;2;0;TrialProc;531;1580;Po2_B;128;1679;1806;ListFischi1;0;;2;203;121350;12;133;1932;123282;76;1;1708;1;824;495;1632;1;1
TMS_Ibrahim;41;3;"<?xml version=""1.0""?>\n<Clock xmlns:dt=""urn:schemas-microsoft-com:datatypes""><Description dt:dt=""string"">E-Prime Primary Realtime Clock</Description><StartTime><Timestamp dt:dt=""int"">0</Timestamp><DateUtc dt:dt=""string"">2022-10-19T16:36:07Z</DateUtc></StartTime><FrequencyChanges><FrequencyChange><Frequency dt:dt=""r8"">3312832</Frequency><Timestamp dt:dt=""r8"">42968332159</Timestamp><Current dt:dt=""r8"">0</Current><DateUtc dt:dt=""string"">2022-10-19T16:36:07Z</DateUtc></FrequencyChange></FrequencyChanges></Clock>\n";TMS_Ibrahim-41-3;75028;100561;1;;19288381;2010242;2010242;10/19/2022;19/10/2022 16:36;18:36:07;2010147;0;;-999999;25;22296;0;1;1916;24212;1;1;1;2;1;0;1;BlockProcFischi;BlockList;1;75;0;;-999999;32;25854;0;1;1047;26901;1;1;1;1;ProcFischi1;ListBlockFischi;15;1;2;0;0;3;Pr3_B;225;3;ug;3;2;18;1;15;3;1;TrialProc;523;717;Pr3_B;34;1750;1716;ListFischi1;0;;2;201;128705;14;13;1777;130482;433;1;1777;1;442;268;1344;1;1
TMS_Ibrahim;41;3;"<?xml version=""1.0""?>\n<Clock xmlns:dt=""urn:schemas-microsoft-com:datatypes""><Description dt:dt=""string"">E-Prime Primary Realtime Clock</Description><StartTime><Timestamp dt:dt=""int"">0</Timestamp><DateUtc dt:dt=""string"">2022-10-19T16:36:07Z</DateUtc></StartTime><FrequencyChanges><FrequencyChange><Frequency dt:dt=""r8"">3312832</Frequency><Timestamp dt:dt=""r8"">42968332159</Timestamp><Current dt:dt=""r8"">0</Current><DateUtc dt:dt=""string"">2022-10-19T16:36:07Z</DateUtc></FrequencyChange></FrequencyChanges></Clock>\n";TMS_Ibrahim-41-3;75028;100561;1;;19288381;2010242;2010242;10/19/2022;19/10/2022 16:36;18:36:07;2010147;0;;-999999;25;22296;0;1;1916;24212;1;1;1;2;1;0;1;BlockProcFischi;BlockList;1;75;0;;-999999;32;25854;0;1;1047;26901;1;1;1;1;ProcFischi1;ListBlockFischi;16;0;2;0;0;3;Pr4_B;;3;ug;1;2;24;1;16;3;1;TrialProc;1727;674;Pr4_B;167;1414;1246;ListFischi1;0;;2;203;136105;11;13;1448;137553;424;1;1;1;142;342;-423;1;0
TMS_Ibrahim;41;3;"<?xml version=""1.0""?>\n<Clock xmlns:dt=""urn:schemas-microsoft-com:datatypes""><Description dt:dt=""string"">E-Prime Primary Realtime Clock</Description><StartTime><Timestamp dt:dt=""int"">0</Timestamp><DateUtc dt:dt=""string"">2022-10-19T16:36:07Z</DateUtc></StartTime><FrequencyChanges><FrequencyChange><Frequency dt:dt=""r8"">3312832</Frequency><Timestamp dt:dt=""r8"">42968332159</Timestamp><Current dt:dt=""r8"">0</Current><DateUtc dt:dt=""string"">2022-10-19T16:36:07Z</DateUtc></FrequencyChange></FrequencyChanges></Clock>\n";TMS_Ibrahim-41-3;75028;100561;1;;19288381;2010242;2010242;10/19/2022;19/10/2022 16:36;18:36:07;2010147;0;;-999999;25;22296;0;1;1916;24212;1;1;1;2;1;0;1;BlockProcFischi;BlockList;1;75;0;;-999999;32;25854;0;1;1047;26901;1;1;1;1;ProcFischi1;ListBlockFischi;17;1;1;0;0;5;Po2_B;150;4;ug;5;2;54;1;17;4;1;TrialProc;724;1584;Po2_B;96;1714;1810;ListFischi1;0;;2;201;143366;14;15;1739;145105;555;1;1739;1;728;246;1184;1;1
TMS_Ibrahim;41;3;"<?xml version=""1.0""?>\n<Clock xmlns:dt=""urn:schemas-microsoft-com:datatypes""><Description dt:dt=""string"">E-Prime Primary Realtime Clock</Description><StartTime><Timestamp dt:dt=""int"">0</Timestamp><DateUtc dt:dt=""string"">2022-10-19T16:36:07Z</DateUtc></StartTime><FrequencyChanges><FrequencyChange><Frequency dt:dt=""r8"">3312832</Frequency><Timestamp dt:dt=""r8"">42968332159</Timestamp><Current dt:dt=""r8"">0</Current><DateUtc dt:dt=""string"">2022-10-19T16:36:07Z</DateUtc></FrequencyChange></FrequencyChanges></Clock>\n";TMS_Ibrahim-41-3;75028;100561;1;;19288381;2010242;2010242;10/19/2022;19/10/2022 16:36;18:36:07;2010147;0;;-999999;25;22296;0;1;1916;24212;1;1;1;2;1;0;1;BlockProcFischi;BlockList;1;75;0;;-999999;32;25854;0;1;1047;26901;1;1;1;1;ProcFischi1;ListBlockFischi;18;1;2;0;0;3;Pr5_B;200;3;ug;3;2;30;1;18;3;1;TrialProc;1025;673;Pr5_B;232;1505;1273;ListFischi1;0;;2;203;150498;13;13;1535;152033;323;1;1535;1;865;410;1212;1;1
TMS_Ibrahim;41;3;"<?xml version=""1.0""?>\n<Clock xmlns:dt=""urn:schemas-microsoft-com:datatypes""><Description dt:dt=""string"">E-Prime Primary Realtime Clock</Description><StartTime><Timestamp dt:dt=""int"">0</Timestamp><DateUtc dt:dt=""string"">2022-10-19T16:36:07Z</DateUtc></StartTime><FrequencyChanges><FrequencyChange><Frequency dt:dt=""r8"">3312832</Frequency><Timestamp dt:dt=""r8"">42968332159</Timestamp><Current dt:dt=""r8"">0</Current><DateUtc dt:dt=""string"">2022-10-19T16:36:07Z</DateUtc></FrequencyChange></FrequencyChanges></Clock>\n";TMS_Ibrahim-41-3;75028;100561;1;;19288381;2010242;2010242;10/19/2022;19/10/2022 16:36;18:36:07;2010147;0;;-999999;25;22296;0;1;1916;24212;1;1;1;2;1;0;1;BlockProcFischi;BlockList;1;75;0;;-999999;32;25854;0;1;1047;26901;1;1;1;1;ProcFischi1;ListBlockFischi;19;1;2;0;1;5;Pr5_B;225;1;op;5;2;14;1;19;1;0;TrialProc;826;673;Pr5_B;315;1589;1273;ListFischi1;0;;2;201;157430;12;15;1611;159041;187;1;1611;1;507;298;1424;1;1
TMS_Ibrahim;41;3;"<?xml version=""1.0""?>\n<Clock xmlns:dt=""urn:schemas-microsoft-com:datatypes""><Description dt:dt=""string"">E-Prime Primary Realtime Clock</Description><StartTime><Timestamp dt:dt=""int"">0</Timestamp><DateUtc dt:dt=""string"">2022-10-19T16:36:07Z</DateUtc></StartTime><FrequencyChanges><FrequencyChange><Frequency dt:dt=""r8"">3312832</Frequency><Timestamp dt:dt=""r8"">42968332159</Timestamp><Current dt:dt=""r8"">0</Current><DateUtc dt:dt=""string"">2022-10-19T16:36:07Z</DateUtc></FrequencyChange></FrequencyChanges></Clock>\n";TMS_Ibrahim-41-3;75028;100561;1;;19288381;2010242;2010242;10/19/2022;19/10/2022 16:36;18:36:07;2010147;0;;-999999;25;22296;0;1;1916;24212;1;1;1;2;1;0;1;BlockProcFischi;BlockList;1;75;0;;-999999;32;25854;0;1;1047;26901;1;1;1;1;ProcFischi1;ListBlockFischi;20;1;1;0;0;5;Po2_B;125;4;ug;5;2;59;1;20;4;1;TrialProc;1013;1576;Po2_B;112;1689;1802;ListFischi1;0;;2;203;164164;9;15;1725;165889;269;1;1725;1;391;463;1456;1;1
TMS_Ibrahim;41;3;"<?xml version=""1.0""?>\n<Clock xmlns:dt=""urn:schemas-microsoft-com:datatypes""><Description dt:dt=""string"">E-Prime Primary Realtime Clock</Description><StartTime><Timestamp dt:dt=""int"">0</Timestamp><DateUtc dt:dt=""string"">2022-10-19T16:36:07Z</DateUtc></StartTime><FrequencyChanges><FrequencyChange><Frequency dt:dt=""r8"">3312832</Frequency><Timestamp dt:dt=""r8"">42968332159</Timestamp><Current dt:dt=""r8"">0</Current><DateUtc dt:dt=""string"">2022-10-19T16:36:07Z</DateUtc></FrequencyChange></FrequencyChanges></Clock>\n";TMS_Ibrahim-41-3;75028;100561;1;;19288381;2010242;2010242;10/19/2022;19/10/2022 16:36;18:36:07;2010147;0;;-999999;25;22296;0;1;1916;24212;1;1;1;2;1;0;1;BlockProcFischi;BlockList;1;75;0;;-999999;32;25854;0;1;1047;26901;1;1;1;1;ProcFischi1;ListBlockFischi;21;1;2;0;2;5;Pr5_B;225;1;op;5;2;9;1;21;1;0;TrialProc;932;677;Pr5_B;493;1770;1276;ListFischi1;0;;2;201;171662;14;15;1795;173457;371;1;1795;1;946;219;1424;1;1
TMS_Ibrahim;41;3;"<?xml version=""1.0""?>\n<Clock xmlns:dt=""urn:schemas-microsoft-com:datatypes""><Description dt:dt=""string"">E-Prime Primary Realtime Clock</Description><StartTime><Timestamp dt:dt=""int"">0</Timestamp><DateUtc dt:dt=""string"">2022-10-19T16:36:07Z</DateUtc></StartTime><FrequencyChanges><FrequencyChange><Frequency dt:dt=""r8"">3312832</Frequency><Timestamp dt:dt=""r8"">42968332159</Timestamp><Current dt:dt=""r8"">0</Current><DateUtc dt:dt=""string"">2022-10-19T16:36:07Z</DateUtc></FrequencyChange></FrequencyChanges></Clock>\n";TMS_Ibrahim-41-3;75028;100561;1;;19288381;2010242;2010242;10/19/2022;19/10/2022 16:36;18:36:07;2010147;0;;-999999;25;22296;0;1;1916;24212;1;1;1;2;1;0;1;BlockProcFischi;BlockList;1;75;0;;-999999;32;25854;0;1;1047;26901;1;1;1;1;ProcFischi1;ListBlockFischi;22;1;1;0;0;5;Po5_B;125;4;ug;5;2;62;1;22;4;1;TrialProc;616;980;Po5_B;9;1483;1474;ListFischi1;0;;2;203;178341;13;1555;2699;181040;268;1;1517;1;1030;391;1249;1;1
TMS_Ibrahim;41;3;"<?xml version=""1.0""?>\n<Clock xmlns:dt=""urn:schemas-microsoft-com:datatypes""><Description dt:dt=""string"">E-Prime Primary Realtime Clock</Description><StartTime><Timestamp dt:dt=""int"">0</Timestamp><DateUtc dt:dt=""string"">2022-10-19T16:36:07Z</DateUtc></StartTime><FrequencyChanges><FrequencyChange><Frequency dt:dt=""r8"">3312832</Frequency><Timestamp dt:dt=""r8"">42968332159</Timestamp><Current dt:dt=""r8"">0</Current><DateUtc dt:dt=""string"">2022-10-19T16:36:07Z</DateUtc></FrequencyChange></FrequencyChanges></Clock>\n";TMS_Ibrahim-41-3;75028;100561;1;;19288381;2010242;2010242;10/19/2022;19/10/2022 16:36;18:36:07;2010147;0;;-999999;25;22296;0;1;1916;24212;1;1;1;2;1;0;1;BlockProcFischi;BlockList;1;75;0;;-999999;32;25854;0;1;1047;26901;1;1;1;1;ProcFischi1;ListBlockFischi;23;1;1;0;0;5;Po5_B;100;4;ug;5;2;57;1;23;4;1;TrialProc;919;987;Po5_B;77;1404;1481;ListFischi1;0;;2;201;184453;19;155;2315;186768;363;1;1435;1;928;459;1072;1;1
TMS_Ibrahim;41;3;"<?xml version=""1.0""?>\n<Clock xmlns:dt=""urn:schemas-microsoft-com:datatypes""><Description dt:dt=""string"">E-Prime Primary Realtime Clock</Description><StartTime><Timestamp dt:dt=""int"">0</Timestamp><DateUtc dt:dt=""string"">2022-10-19T16:36:07Z</DateUtc></StartTime><FrequencyChanges><FrequencyChange><Frequency dt:dt=""r8"">3312832</Frequency><Timestamp dt:dt=""r8"">42968332159</Timestamp><Current dt:dt=""r8"">0</Current><DateUtc dt:dt=""string"">2022-10-19T16:36:07Z</DateUtc></FrequencyChange></FrequencyChanges></Clock>\n";TMS_Ibrahim-41-3;75028;100561;1;;19288381;2010242;2010242;10/19/2022;19/10/2022 16:36;18:36:07;2010147;0;;-999999;25;22296;0;1;1916;24212;1;1;1;2;1;0;1;BlockProcFischi;BlockList;1;75;0;;-999999;32;25854;0;1;1047;26901;1;1;1;1;ProcFischi1;ListBlockFischi;24;1;2;0;0;5;Pr4_B;250;1;op;5;2;3;1;24;1;0;TrialProc;606;674;Pr4_B;176;1424;1247;ListFischi1;0;;2;203;190790;12;15;1450;192240;202;1;1450;1;1291;351;1248;1;1
TMS_Ibrahim;41;3;"<?xml version=""1.0""?>\n<Clock xmlns:dt=""urn:schemas-microsoft-com:datatypes""><Description dt:dt=""string"">E-Prime Primary Realtime Clock</Description><StartTime><Timestamp dt:dt=""int"">0</Timestamp><DateUtc dt:dt=""string"">2022-10-19T16:36:07Z</DateUtc></StartTime><FrequencyChanges><FrequencyChange><Frequency dt:dt=""r8"">3312832</Frequency><Timestamp dt:dt=""r8"">42968332159</Timestamp><Current dt:dt=""r8"">0</Current><DateUtc dt:dt=""string"">2022-10-19T16:36:07Z</DateUtc></FrequencyChange></FrequencyChanges></Clock>\n";TMS_Ibrahim-41-3;75028;100561;1;;19288381;2010242;2010242;10/19/2022;19/10/2022 16:36;18:36:07;2010147;0;;-999999;25;22296;0;1;1916;24212;1;1;1;2;1;0;1;BlockProcFischi;BlockList;1;75;0;;-999999;32;25854;0;1;1047;26901;1;1;1;1;ProcFischi1;ListBlockFischi;25;1;2;0;0;5;Pr2_B;225;1;op;5;2;11;1;25;1;0;TrialProc;922;720;Pr2_B;34;1287;1253;ListFischi1;0;;2;201;197835;18;15;1317;199152;213;1;1317;1;817;486;1104;1;1
TMS_Ibrahim;41;3;"<?xml version=""1.0""?>\n<Clock xmlns:dt=""urn:schemas-microsoft-com:datatypes""><Description dt:dt=""string"">E-Prime Primary Realtime Clock</Description><StartTime><Timestamp dt:dt=""int"">0</Timestamp><DateUtc dt:dt=""string"">2022-10-19T16:36:07Z</DateUtc></StartTime><FrequencyChanges><FrequencyChange><Frequency dt:dt=""r8"">3312832</Frequency><Timestamp dt:dt=""r8"">42968332159</Timestamp><Current dt:dt=""r8"">0</Current><DateUtc dt:dt=""string"">2022-10-19T16:36:07Z</DateUtc></FrequencyChange></FrequencyChanges></Clock>\n";TMS_Ibrahim-41-3;75028;100561;1;;19288381;2010242;2010242;10/19/2022;19/10/2022 16:36;18:36:07;2010147;0;;-999999;25;22296;0;1;1916;24212;1;1;1;2;1;0;1;BlockProcFischi;BlockList;1;75;0;;-999999;32;25854;0;1;1047;26901;1;1;1;1;ProcFischi1;ListBlockFischi;26;1;2;0;1;3;Pr8_B;200;3;ug;3;2;26;1;26;3;1;TrialProc;555;714;Pr8_B;85;1656;1740;ListFischi1;0;;2;203;205264;13;13;1680;206944;208;1;1680;1;635;500;1472;1;1
TMS_Ibrahim;41;3;"<?xml version=""1.0""?>\n<Clock xmlns:dt=""urn:schemas-microsoft-com:datatypes""><Description dt:dt=""string"">E-Prime Primary Realtime Clock</Description><StartTime><Timestamp dt:dt=""int"">0</Timestamp><DateUtc dt:dt=""string"">2022-10-19T16:36:07Z</DateUtc></StartTime><FrequencyChanges><FrequencyChange><Frequency dt:dt=""r8"">3312832</Frequency><Timestamp dt:dt=""r8"">42968332159</Timestamp><Current dt:dt=""r8"">0</Current><DateUtc dt:dt=""string"">2022-10-19T16:36:07Z</DateUtc></FrequencyChange></FrequencyChanges></Clock>\n";TMS_Ibrahim-41-3;75028;100561;1;;19288381;2010242;2010242;10/19/2022;19/10/2022 16:36;18:36:07;2010147;0;;-999999;25;22296;0;1;1916;24212;1;1;1;2;1;0;1;BlockProcFischi;BlockList;1;75;0;;-999999;32;25854;0;1;1047;26901;1;1;1;1;ProcFischi1;ListBlockFischi;27;1;2;1;0;5;Prmod_B;200;1;op;5;2;15;1;27;1;0;TrialProc;636;1312;Prmod_B;52;1698;1646;ListFischi1;0;;2;201;212531;10;15;1725;214256;381;1;1725;1;241;438;1344;1;1
TMS_Ibrahim;41;3;"<?xml version=""1.0""?>\n<Clock xmlns:dt=""urn:schemas-microsoft-com:datatypes""><Description dt:dt=""string"">E-Prime Primary Realtime Clock</Description><StartTime><Timestamp dt:dt=""int"">0</Timestamp><DateUtc dt:dt=""string"">2022-10-19T16:36:07Z</DateUtc></StartTime><FrequencyChanges><FrequencyChange><Frequency dt:dt=""r8"">3312832</Frequency><Timestamp dt:dt=""r8"">42968332159</Timestamp><Current dt:dt=""r8"">0</Current><DateUtc dt:dt=""string"">2022-10-19T16:36:07Z</DateUtc></FrequencyChange></FrequencyChanges></Clock>\n";TMS_Ibrahim-41-3;75028;100561;1;;19288381;2010242;2010242;10/19/2022;19/10/2022 16:36;18:36:07;2010147;0;;-999999;25;22296;0;1;1916;24212;1;1;1;2;1;0;1;BlockProcFischi;BlockList;1;75;0;;-999999;32;25854;0;1;1047;26901;1;1;1;1;ProcFischi1;ListBlockFischi;28;1;1;0;0;5;Po3_B;100;4;ug;5;2;50;1;28;4;1;TrialProc;676;1318;Po3_B;110;1696;1585;ListFischi1;0;;2;203;219535;17;155;2385;221920;449;1;1729;1;386;273;1280;1;1
TMS_Ibrahim;41;3;"<?xml version=""1.0""?>\n<Clock xmlns:dt=""urn:schemas-microsoft-com:datatypes""><Description dt:dt=""string"">E-Prime Primary Realtime Clock</Description><StartTime><Timestamp dt:dt=""int"">0</Timestamp><DateUtc dt:dt=""string"">2022-10-19T16:36:07Z</DateUtc></StartTime><FrequencyChanges><FrequencyChange><Frequency dt:dt=""r8"">3312832</Frequency><Timestamp dt:dt=""r8"">42968332159</Timestamp><Current dt:dt=""r8"">0</Current><DateUtc dt:dt=""string"">2022-10-19T16:36:07Z</DateUtc></FrequencyChange></FrequencyChanges></Clock>\n";TMS_Ibrahim-41-3;75028;100561;1;;19288381;2010242;2010242;10/19/2022;19/10/2022 16:36;18:36:07;2010147;0;;-999999;25;22296;0;1;1916;24212;1;1;1;2;1;0;1;BlockProcFischi;BlockList;1;75;0;;-999999;32;25854;0;1;1047;26901;1;1;1;1;ProcFischi1;ListBlockFischi;29;0;2;0;0;5;Pr8_B;;1;op;1;2;10;1;29;1;0;TrialProc;548;714;Pr8_B;110;1696;1741;ListFischi1;0;;2;201;226124;12;15;2004;228128;357;1;1;1;131;594;-356;1;0
TMS_Ibrahim;41;3;"<?xml version=""1.0""?>\n<Clock xmlns:dt=""urn:schemas-microsoft-com:datatypes""><Description dt:dt=""string"">E-Prime Primary Realtime Clock</Description><StartTime><Timestamp dt:dt=""int"">0</Timestamp><DateUtc dt:dt=""string"">2022-10-19T16:36:07Z</DateUtc></StartTime><FrequencyChanges><FrequencyChange><Frequency dt:dt=""r8"">3312832</Frequency><Timestamp dt:dt=""r8"">42968332159</Timestamp><Current dt:dt=""r8"">0</Current><DateUtc dt:dt=""string"">2022-10-19T16:36:07Z</DateUtc></FrequencyChange></FrequencyChanges></Clock>\n";TMS_Ibrahim-41-3;75028;100561;1;;19288381;2010242;2010242;10/19/2022;19/10/2022 16:36;18:36:07;2010147;0;;-999999;25;22296;0;1;1916;24212;1;1;1;2;1;0;1;BlockProcFischi;BlockList;1;75;0;;-999999;32;25854;0;1;1047;26901;1;1;1;1;ProcFischi1;ListBlockFischi;30;1;2;0;0;5;Pr4_B;175;1;op;5;2;8;1;30;1;0;TrialProc;560;668;Pr4_B;170;1410;1240;ListFischi1;0;;2;203;233580;6;15;1443;235023;259;1;1443;1;434;399;1184;1;1
TMS_Ibrahim;41;3;"<?xml version=""1.0""?>\n<Clock xmlns:dt=""urn:schemas-microsoft-com:datatypes""><Description dt:dt=""string"">E-Prime Primary Realtime Clock</Description><StartTime><Timestamp dt:dt=""int"">0</Timestamp><DateUtc dt:dt=""string"">2022-10-19T16:36:07Z</DateUtc></StartTime><FrequencyChanges><FrequencyChange><Frequency dt:dt=""r8"">3312832</Frequency><Timestamp dt:dt=""r8"">42968332159</Timestamp><Current dt:dt=""r8"">0</Current><DateUtc dt:dt=""string"">2022-10-19T16:36:07Z</DateUtc></FrequencyChange></FrequencyChanges></Clock>\n";TMS_Ibrahim-41-3;75028;100561;1;;19288381;2010242;2010242;10/19/2022;19/10/2022 16:36;18:36:07;2010147;0;;-999999;25;22296;0;1;1916;24212;1;1;1;2;1;0;1;BlockProcFischi;BlockList;1;75;0;;-999999;32;25854;0;1;1047;26901;1;1;1;1;ProcFischi1;ListBlockFischi;31;1;2;0;0;3;Pr4_B;175;3;ug;3;2;29;1;31;3;1;TrialProc;596;677;Pr4_B;103;1353;1250;ListFischi1;0;;2;201;240556;14;13;1379;241935;291;1;1379;1;390;388;1088;1;1
TMS_Ibrahim;41;3;"<?xml version=""1.0""?>\n<Clock xmlns:dt=""urn:schemas-microsoft-com:datatypes""><Description dt:dt=""string"">E-Prime Primary Realtime Clock</Description><StartTime><Timestamp dt:dt=""int"">0</Timestamp><DateUtc dt:dt=""string"">2022-10-19T16:36:07Z</DateUtc></StartTime><FrequencyChanges><FrequencyChange><Frequency dt:dt=""r8"">3312832</Frequency><Timestamp dt:dt=""r8"">42968332159</Timestamp><Current dt:dt=""r8"">0</Current><DateUtc dt:dt=""string"">2022-10-19T16:36:07Z</DateUtc></FrequencyChange></FrequencyChanges></Clock>\n";TMS_Ibrahim-41-3;75028;100561;1;;19288381;2010242;2010242;10/19/2022;19/10/2022 16:36;18:36:07;2010147;0;;-999999;25;22296;0;1;1916;24212;1;1;1;2;1;0;1;BlockProcFischi;BlockList;1;75;0;;-999999;32;25854;0;1;1047;26901;1;1;1;1;ProcFischi1;ListBlockFischi;32;1;2;0;0;5;Pr2_B;175;1;op;5;2;1;1;32;1;0;TrialProc;629;713;Pr2_B;127;1374;1246;ListFischi1;0;;2;203;247850;11;155;2997;250847;294;1;1397;1;932;398;1103;1;1
TMS_Ibrahim;41;3;"<?xml version=""1.0""?>\n<Clock xmlns:dt=""urn:schemas-microsoft-com:datatypes""><Description dt:dt=""string"">E-Prime Primary Realtime Clock</Description><StartTime><Timestamp dt:dt=""int"">0</Timestamp><DateUtc dt:dt=""string"">2022-10-19T16:36:07Z</DateUtc></StartTime><FrequencyChanges><FrequencyChange><Frequency dt:dt=""r8"">3312832</Frequency><Timestamp dt:dt=""r8"">42968332159</Timestamp><Current dt:dt=""r8"">0</Current><DateUtc dt:dt=""string"">2022-10-19T16:36:07Z</DateUtc></FrequencyChange></FrequencyChanges></Clock>\n";TMS_Ibrahim-41-3;75028;100561;1;;19288381;2010242;2010242;10/19/2022;19/10/2022 16:36;18:36:07;2010147;0;;-999999;25;22296;0;1;1916;24212;1;1;1;2;1;0;1;BlockProcFischi;BlockList;1;75;0;;-999999;32;25854;0;1;1047;26901;1;1;1;1;ProcFischi1;ListBlockFischi;33;1;2;0;0;5;Pr3_B;150;1;op;5;2;7;1;33;1;0;TrialProc;516;720;Pr3_B;76;1795;1720;ListFischi1;0;;2;201;254774;18;155;3481;258255;299;1;1817;1;516;359;1518;1;1
TMS_Ibrahim;41;3;"<?xml version=""1.0""?>\n<Clock xmlns:dt=""urn:schemas-microsoft-com:datatypes""><Description dt:dt=""string"">E-Prime Primary Realtime Clock</Description><StartTime><Timestamp dt:dt=""int"">0</Timestamp><DateUtc dt:dt=""string"">2022-10-19T16:36:07Z</DateUtc></StartTime><FrequencyChanges><FrequencyChange><Frequency dt:dt=""r8"">3312832</Frequency><Timestamp dt:dt=""r8"">42968332159</Timestamp><Current dt:dt=""r8"">0</Current><DateUtc dt:dt=""string"">2022-10-19T16:36:07Z</DateUtc></FrequencyChange></FrequencyChanges></Clock>\n";TMS_Ibrahim-41-3;75028;100561;1;;19288381;2010242;2010242;10/19/2022;19/10/2022 16:36;18:36:07;2010147;0;;-999999;25;22296;0;1;1916;24212;1;1;1;2;1;0;1;BlockProcFischi;BlockList;1;75;0;;-999999;32;25854;0;1;1047;26901;1;1;1;1;ProcFischi1;ListBlockFischi;34;1;1;0;0;5;Po2_B;100;4;ug;5;2;49;1;34;4;1;TrialProc;1731;1579;Po2_B;150;1656;1807;ListFischi1;0;;2;203;262096;13;15;1679;263775;287;1;1679;1;50;456;1392;1;1
TMS_Ibrahim;41;3;"<?xml version=""1.0""?>\n<Clock xmlns:dt=""urn:schemas-microsoft-com:datatypes""><Description dt:dt=""string"">E-Prime Primary Realtime Clock</Description><StartTime><Timestamp dt:dt=""int"">0</Timestamp><DateUtc dt:dt=""string"">2022-10-19T16:36:07Z</DateUtc></StartTime><FrequencyChanges><FrequencyChange><Frequency dt:dt=""r8"">3312832</Frequency><Timestamp dt:dt=""r8"">42968332159</Timestamp><Current dt:dt=""r8"">0</Current><DateUtc dt:dt=""string"">2022-10-19T16:36:07Z</DateUtc></FrequencyChange></FrequencyChanges></Clock>\n";TMS_Ibrahim-41-3;75028;100561;1;;19288381;2010242;2010242;10/19/2022;19/10/2022 16:36;18:36:07;2010147;0;;-999999;25;22296;0;1;1916;24212;1;1;1;2;1;0;1;BlockProcFischi;BlockList;1;75;0;;-999999;32;25854;0;1;1047;26901;1;1;1;1;ProcFischi1;ListBlockFischi;35;1;2;0;0;3;Pr2_B;150;3;ug;3;2;17;1;35;3;1;TrialProc;610;716;Pr2_B;62;1310;1248;ListFischi1;0;;2;201;269680;13;13;1343;271023;207;1;1343;1;389;455;1136;1;1
TMS_Ibrahim;41;3;"<?xml version=""1.0""?>\n<Clock xmlns:dt=""urn:schemas-microsoft-com:datatypes""><Description dt:dt=""string"">E-Prime Primary Realtime Clock</Description><StartTime><Timestamp dt:dt=""int"">0</Timestamp><DateUtc dt:dt=""string"">2022-10-19T16:36:07Z</DateUtc></StartTime><FrequencyChanges><FrequencyChange><Frequency dt:dt=""r8"">3312832</Frequency><Timestamp dt:dt=""r8"">42968332159</Timestamp><Current dt:dt=""r8"">0</Current><DateUtc dt:dt=""string"">2022-10-19T16:36:07Z</DateUtc></FrequencyChange></FrequencyChanges></Clock>\n";TMS_Ibrahim-41-3;75028;100561;1;;19288381;2010242;2010242;10/19/2022;19/10/2022 16:36;18:36:07;2010147;0;;-999999;25;22296;0;1;1916;24212;1;1;1;2;1;0;1;BlockProcFischi;BlockList;1;75;0;;-999999;32;25854;0;1;1047;26901;1;1;1;1;ProcFischi1;ListBlockFischi;36;1;1;1;0;3;Pomod_B;150;2;op;3;2;47;1;36;2;0;TrialProc;816;1315;Pomod_B;122;1796;1674;ListFischi1;0;;2;203;277117;13;13;1825;278942;257;1;1825;1;361;561;1568;1;1
TMS_Ibrahim;41;3;"<?xml version=""1.0""?>\n<Clock xmlns:dt=""urn:schemas-microsoft-com:datatypes""><Description dt:dt=""string"">E-Prime Primary Realtime Clock</Description><StartTime><Timestamp dt:dt=""int"">0</Timestamp><DateUtc dt:dt=""string"">2022-10-19T16:36:07Z</DateUtc></StartTime><FrequencyChanges><FrequencyChange><Frequency dt:dt=""r8"">3312832</Frequency><Timestamp dt:dt=""r8"">42968332159</Timestamp><Current dt:dt=""r8"">0</Current><DateUtc dt:dt=""string"">2022-10-19T16:36:07Z</DateUtc></FrequencyChange></FrequencyChanges></Clock>\n";TMS_Ibrahim-41-3;75028;100561;1;;19288381;2010242;2010242;10/19/2022;19/10/2022 16:36;18:36:07;2010147;0;;-999999;25;22296;0;1;1916;24212;1;1;1;2;1;0;1;BlockProcFischi;BlockList;1;75;0;;-999999;32;25854;0;1;1047;26901;1;1;1;1;ProcFischi1;ListBlockFischi;37;0;1;0;1;5;Po4_B;;4;ug;1;2;61;1;37;4;1;TrialProc;590;1343;Po4_B;317;2034;1717;ListFischi1;0;;2;201;284258;16;15;2060;286318;364;1;1;1;285;552;-363;1;0
