ExperimentName;Subject;Session;Clock.Information;DataFile.Basename;Display.RefreshRate;ExperimentVersion;Group;Name;RandomSeed;RuntimeVersion;RuntimeVersionExpected;SessionDate;SessionStartDateTimeUtc;SessionTime;StudioVersion;SyncEprimeKinB1.ACC;SyncEprimeKinB1.CRESP;SyncEprimeKinB1.DurationError;SyncEprimeKinB1.OnsetDelay;SyncEprimeKinB1.OnsetTime;SyncEprimeKinB1.OnsetToOnsetTime;SyncEprimeKinB1.RESP;SyncEprimeKinB1.RT;SyncEprimeKinB1.RTTime;Block;BlockINT_0Fischi_1Suoni;BlockList;BlockList.Cycle;BlockList.Sample;ContatoreSuoni;NumSuono;Procedure[Block];Running[Block];Suonilist;SuonoFinSoglia;SyncEprimeKinFischi1.ACC;SyncEprimeKinFischi1.CRESP;SyncEprimeKinFischi1.DurationError;SyncEprimeKinFischi1.OnsetDelay;SyncEprimeKinFischi1.OnsetTime;SyncEprimeKinFischi1.OnsetToOnsetTime;SyncEprimeKinFischi1.RESP;SyncEprimeKinFischi1.RT;SyncEprimeKinFischi1.RTTime;Trial;ListBlockFischi;ListBlockFischi.Cycle;ListBlockFischi.Sample;Procedure[Trial];Running[Trial];SubTrial;AccSogg1;Avatar_Giu1_Su2;CatchTrial_CORR;ContatoreFinestraSoglia;CorrectResponse;File_Name;FinestraSoglia;IdcondEEG;Istruzione;KeySoggetto1;KeySoggetto2;ListFischi1;ListFischi1.Cycle;ListFischi1.Sample;NumeroSuono;OP_UG;Procedure[SubTrial];Resoconto.RT;RTChange;RTimage;RTNetto;RTSubj;RTTouch;Running[SubTrial];StartGo.ACC;StartGo.CRESP;StartGo.DurationError;StartGo.OnsetDelay;StartGo.OnsetTime;StartGo.OnsetToOnsetTime;StartGo.RESP;StartGo.RT;StartGo.RTTime;StartSoggetto1;StartSoggetto2;StopSoggetto1;StopSoggetto2;StopTrial.RT;tempo;TMSoggetto1;ValiditaTrial;Vincitore
TMS_Ibrahim;42;1;"<?xml version=""1.0""?>\n<Clock xmlns:dt=""urn:schemas-microsoft-com:datatypes""><Description dt:dt=""string"">E-Prime Primary Realtime Clock</Description><StartTime><Timestamp dt:dt=""int"">0</Timestamp><DateUtc dt:dt=""string"">2022-10-21T12:54:05Z</DateUtc></StartTime><FrequencyChanges><FrequencyChange><Frequency dt:dt=""r8"">3312880</Frequency><Timestamp dt:dt=""r8"">18711408497</Timestamp><Current dt:dt=""r8"">0</Current><DateUtc dt:dt=""string"">2022-10-21T12:54:05Z</DateUtc></FrequencyChange></FrequencyChanges></Clock>\n";TMS_Ibrahim-42-1;75029;100561;1;ve;1532181885;2010242;2010242;10/21/2022;21/10/2022 12:54;14:54:05;2010147;0;;-999999;46;60436;0;1;580;61016;1;1;1;2;1;1;1;BlockProcFischi;BlockList;1;125;0;;-999999;32;62783;0;1;1099;63882;1;1;1;1;ProcFischi1;ListBlockFischi;1;1;2;0;0;5;Pr5_B;250;1;op;5;2;9;1;1;1;0;TrialProc;1145;706;Pr5_B;196;1503;1307;ListFischi1;0;;6;210;66011;22;15;1529;67540;361;1;1529;1;489;448;1168;1;1
TMS_Ibrahim;42;1;"<?xml version=""1.0""?>\n<Clock xmlns:dt=""urn:schemas-microsoft-com:datatypes""><Description dt:dt=""string"">E-Prime Primary Realtime Clock</Description><StartTime><Timestamp dt:dt=""int"">0</Timestamp><DateUtc dt:dt=""string"">2022-10-21T12:54:05Z</DateUtc></StartTime><FrequencyChanges><FrequencyChange><Frequency dt:dt=""r8"">3312880</Frequency><Timestamp dt:dt=""r8"">18711408497</Timestamp><Current dt:dt=""r8"">0</Current><DateUtc dt:dt=""string"">2022-10-21T12:54:05Z</DateUtc></FrequencyChange></FrequencyChanges></Clock>\n";TMS_Ibrahim-42-1;75029;100561;1;ve;1532181885;2010242;2010242;10/21/2022;21/10/2022 12:54;14:54:05;2010147;0;;-999999;46;60436;0;1;580;61016;1;1;1;2;1;1;1;BlockProcFischi;BlockList;1;125;0;;-999999;32;62783;0;1;1099;63882;1;1;1;1;ProcFischi1;ListBlockFischi;2;1;1;0;0;3;Po2_B;250;2;op;3;2;33;1;2;2;0;TrialProc;1129;1579;Po2_B;294;1511;1805;ListFischi1;0;;1;207;73074;9;13;1537;74611;241;1;1537;1;450;389;1296;1;1
TMS_Ibrahim;42;1;"<?xml version=""1.0""?>\n<Clock xmlns:dt=""urn:schemas-microsoft-com:datatypes""><Description dt:dt=""string"">E-Prime Primary Realtime Clock</Description><StartTime><Timestamp dt:dt=""int"">0</Timestamp><DateUtc dt:dt=""string"">2022-10-21T12:54:05Z</DateUtc></StartTime><FrequencyChanges><FrequencyChange><Frequency dt:dt=""r8"">3312880</Frequency><Timestamp dt:dt=""r8"">18711408497</Timestamp><Current dt:dt=""r8"">0</Current><DateUtc dt:dt=""string"">2022-10-21T12:54:05Z</DateUtc></FrequencyChange></FrequencyChanges></Clock>\n";TMS_Ibrahim-42-1;75029;100561;1;ve;1532181885;2010242;2010242;10/21/2022;21/10/2022 12:54;14:54:05;2010147;0;;-999999;46;60436;0;1;580;61016;1;1;1;2;1;1;1;BlockProcFischi;BlockList;1;125;0;;-999999;32;62783;0;1;1099;63882;1;1;1;1;ProcFischi1;ListBlockFischi;3;1;2;0;0;5;Pr3_B;225;1;op;5;2;12;1;3;1;0;TrialProc;480;718;Pr3_B;149;1568;1717;ListFischi1;0;;1;203;80611;16;15;1600;82211;176;1;1600;1;537;409;1424;1;1
TMS_Ibrahim;42;1;"<?xml version=""1.0""?>\n<Clock xmlns:dt=""urn:schemas-microsoft-com:datatypes""><Description dt:dt=""string"">E-Prime Primary Realtime Clock</Description><StartTime><Timestamp dt:dt=""int"">0</Timestamp><DateUtc dt:dt=""string"">2022-10-21T12:54:05Z</DateUtc></StartTime><FrequencyChanges><FrequencyChange><Frequency dt:dt=""r8"">3312880</Frequency><Timestamp dt:dt=""r8"">18711408497</Timestamp><Current dt:dt=""r8"">0</Current><DateUtc dt:dt=""string"">2022-10-21T12:54:05Z</DateUtc></FrequencyChange></FrequencyChanges></Clock>\n";TMS_Ibrahim-42-1;75029;100561;1;ve;1532181885;2010242;2010242;10/21/2022;21/10/2022 12:54;14:54:05;2010147;0;;-999999;46;60436;0;1;580;61016;1;1;1;2;1;1;1;BlockProcFischi;BlockList;1;125;0;;-999999;32;62783;0;1;1099;63882;1;1;1;1;ProcFischi1;ListBlockFischi;4;1;2;0;0;3;Pr8_B;250;3;ug;3;2;26;1;4;3;1;TrialProc;768;718;Pr8_B;3;1748;1745;ListFischi1;0;;3;201;88153;18;133;1866;90019;331;1;1770;1;159;585;1439;1;1
TMS_Ibrahim;42;1;"<?xml version=""1.0""?>\n<Clock xmlns:dt=""urn:schemas-microsoft-com:datatypes""><Description dt:dt=""string"">E-Prime Primary Realtime Clock</Description><StartTime><Timestamp dt:dt=""int"">0</Timestamp><DateUtc dt:dt=""string"">2022-10-21T12:54:05Z</DateUtc></StartTime><FrequencyChanges><FrequencyChange><Frequency dt:dt=""r8"">3312880</Frequency><Timestamp dt:dt=""r8"">18711408497</Timestamp><Current dt:dt=""r8"">0</Current><DateUtc dt:dt=""string"">2022-10-21T12:54:05Z</DateUtc></FrequencyChange></FrequencyChanges></Clock>\n";TMS_Ibrahim-42-1;75029;100561;1;ve;1532181885;2010242;2010242;10/21/2022;21/10/2022 12:54;14:54:05;2010147;0;;-999999;46;60436;0;1;580;61016;1;1;1;2;1;1;1;BlockProcFischi;BlockList;1;125;0;;-999999;32;62783;0;1;1099;63882;1;1;1;1;ProcFischi1;ListBlockFischi;5;1;2;1;0;5;Prmod_B;200;1;op;5;2;15;1;5;1;0;TrialProc;650;1317;Prmod_B;123;1773;1650;ListFischi1;0;;3;201;95110;18;15;1805;96915;189;1;1805;1;512;418;1616;1;1
TMS_Ibrahim;42;1;"<?xml version=""1.0""?>\n<Clock xmlns:dt=""urn:schemas-microsoft-com:datatypes""><Description dt:dt=""string"">E-Prime Primary Realtime Clock</Description><StartTime><Timestamp dt:dt=""int"">0</Timestamp><DateUtc dt:dt=""string"">2022-10-21T12:54:05Z</DateUtc></StartTime><FrequencyChanges><FrequencyChange><Frequency dt:dt=""r8"">3312880</Frequency><Timestamp dt:dt=""r8"">18711408497</Timestamp><Current dt:dt=""r8"">0</Current><DateUtc dt:dt=""string"">2022-10-21T12:54:05Z</DateUtc></FrequencyChange></FrequencyChanges></Clock>\n";TMS_Ibrahim-42-1;75029;100561;1;ve;1532181885;2010242;2010242;10/21/2022;21/10/2022 12:54;14:54:05;2010147;0;;-999999;46;60436;0;1;580;61016;1;1;1;2;1;1;1;BlockProcFischi;BlockList;1;125;0;;-999999;32;62783;0;1;1099;63882;1;1;1;1;ProcFischi1;ListBlockFischi;6;1;2;0;0;5;Pr3_B;175;1;op;5;2;7;1;6;1;0;TrialProc;689;712;Pr3_B;158;1554;1712;ListFischi1;0;;2;203;102862;10;15;1572;104434;276;1;1572;1;228;367;1296;1;1
TMS_Ibrahim;42;1;"<?xml version=""1.0""?>\n<Clock xmlns:dt=""urn:schemas-microsoft-com:datatypes""><Description dt:dt=""string"">E-Prime Primary Realtime Clock</Description><StartTime><Timestamp dt:dt=""int"">0</Timestamp><DateUtc dt:dt=""string"">2022-10-21T12:54:05Z</DateUtc></StartTime><FrequencyChanges><FrequencyChange><Frequency dt:dt=""r8"">3312880</Frequency><Timestamp dt:dt=""r8"">18711408497</Timestamp><Current dt:dt=""r8"">0</Current><DateUtc dt:dt=""string"">2022-10-21T12:54:05Z</DateUtc></FrequencyChange></FrequencyChanges></Clock>\n";TMS_Ibrahim-42-1;75029;100561;1;ve;1532181885;2010242;2010242;10/21/2022;21/10/2022 12:54;14:54:05;2010147;0;;-999999;46;60436;0;1;580;61016;1;1;1;2;1;1;1;BlockProcFischi;BlockList;1;125;0;;-999999;32;62783;0;1;1099;63882;1;1;1;1;ProcFischi1;ListBlockFischi;7;1;2;0;0;5;Pr8_B;175;1;op;5;2;10;1;7;1;0;TrialProc;904;715;Pr8_B;14;1754;1741;ListFischi1;0;;3;201;110161;14;15;1777;111938;273;1;1777;1;448;307;1504;1;1
TMS_Ibrahim;42;1;"<?xml version=""1.0""?>\n<Clock xmlns:dt=""urn:schemas-microsoft-com:datatypes""><Description dt:dt=""string"">E-Prime Primary Realtime Clock</Description><StartTime><Timestamp dt:dt=""int"">0</Timestamp><DateUtc dt:dt=""string"">2022-10-21T12:54:05Z</DateUtc></StartTime><FrequencyChanges><FrequencyChange><Frequency dt:dt=""r8"">3312880</Frequency><Timestamp dt:dt=""r8"">18711408497</Timestamp><Current dt:dt=""r8"">0</Current><DateUtc dt:dt=""string"">2022-10-21T12:54:05Z</DateUtc></FrequencyChange></FrequencyChanges></Clock>\n";TMS_Ibrahim-42-1;75029;100561;1;ve;1532181885;2010242;2010242;10/21/2022;21/10/2022 12:54;14:54:05;2010147;0;;-999999;46;60436;0;1;580;61016;1;1;1;2;1;1;1;BlockProcFischi;BlockList;1;125;0;;-999999;32;62783;0;1;1099;63882;1;1;1;1;ProcFischi1;ListBlockFischi;8;0;1;0;0;5;Po3_B;;4;ug;3;2;55;1;8;4;1;TrialProc;1197;1316;Po3_B;147;1436;1583;ListFischi1;0;;2;203;117438;15;13;1460;118898;276;1;1460;1;313;572;1184;1;0
TMS_Ibrahim;42;1;"<?xml version=""1.0""?>\n<Clock xmlns:dt=""urn:schemas-microsoft-com:datatypes""><Description dt:dt=""string"">E-Prime Primary Realtime Clock</Description><StartTime><Timestamp dt:dt=""int"">0</Timestamp><DateUtc dt:dt=""string"">2022-10-21T12:54:05Z</DateUtc></StartTime><FrequencyChanges><FrequencyChange><Frequency dt:dt=""r8"">3312880</Frequency><Timestamp dt:dt=""r8"">18711408497</Timestamp><Current dt:dt=""r8"">0</Current><DateUtc dt:dt=""string"">2022-10-21T12:54:05Z</DateUtc></FrequencyChange></FrequencyChanges></Clock>\n";TMS_Ibrahim-42-1;75029;100561;1;ve;1532181885;2010242;2010242;10/21/2022;21/10/2022 12:54;14:54:05;2010147;0;;-999999;46;60436;0;1;580;61016;1;1;1;2;1;1;1;BlockProcFischi;BlockList;1;125;0;;-999999;32;62783;0;1;1099;63882;1;1;1;1;ProcFischi1;ListBlockFischi;9;1;2;0;0;5;Pr4_B;150;1;op;5;2;3;1;9;1;0;TrialProc;813;670;Pr4_B;196;1440;1244;ListFischi1;0;;3;201;124801;9;15;1473;126274;337;1;1473;1;624;438;1136;1;1
TMS_Ibrahim;42;1;"<?xml version=""1.0""?>\n<Clock xmlns:dt=""urn:schemas-microsoft-com:datatypes""><Description dt:dt=""string"">E-Prime Primary Realtime Clock</Description><StartTime><Timestamp dt:dt=""int"">0</Timestamp><DateUtc dt:dt=""string"">2022-10-21T12:54:05Z</DateUtc></StartTime><FrequencyChanges><FrequencyChange><Frequency dt:dt=""r8"">3312880</Frequency><Timestamp dt:dt=""r8"">18711408497</Timestamp><Current dt:dt=""r8"">0</Current><DateUtc dt:dt=""string"">2022-10-21T12:54:05Z</DateUtc></FrequencyChange></FrequencyChanges></Clock>\n";TMS_Ibrahim-42-1;75029;100561;1;ve;1532181885;2010242;2010242;10/21/2022;21/10/2022 12:54;14:54:05;2010147;0;;-999999;46;60436;0;1;580;61016;1;1;1;2;1;1;1;BlockProcFischi;BlockList;1;125;0;;-999999;32;62783;0;1;1099;63882;1;1;1;1;ProcFischi1;ListBlockFischi;10;1;1;0;0;5;Po4_B;250;4;ug;5;2;61;1;10;4;1;TrialProc;633;1344;Po4_B;335;1383;1717;ListFischi1;0;;2;203;131711;16;15;1410;133121;274;1;1410;1;316;211;1136;1;1
TMS_Ibrahim;42;1;"<?xml version=""1.0""?>\n<Clock xmlns:dt=""urn:schemas-microsoft-com:datatypes""><Description dt:dt=""string"">E-Prime Primary Realtime Clock</Description><StartTime><Timestamp dt:dt=""int"">0</Timestamp><DateUtc dt:dt=""string"">2022-10-21T12:54:05Z</DateUtc></StartTime><FrequencyChanges><FrequencyChange><Frequency dt:dt=""r8"">3312880</Frequency><Timestamp dt:dt=""r8"">18711408497</Timestamp><Current dt:dt=""r8"">0</Current><DateUtc dt:dt=""string"">2022-10-21T12:54:05Z</DateUtc></FrequencyChange></FrequencyChanges></Clock>\n";TMS_Ibrahim-42-1;75029;100561;1;ve;1532181885;2010242;2010242;10/21/2022;21/10/2022 12:54;14:54:05;2010147;0;;-999999;46;60436;0;1;580;61016;1;1;1;2;1;1;1;BlockProcFischi;BlockList;1;125;0;;-999999;32;62783;0;1;1099;63882;1;1;1;1;ProcFischi1;ListBlockFischi;11;1;1;0;1;5;Po2_B;250;4;ug;5;2;59;1;11;4;1;TrialProc;464;1582;Po2_B;120;1689;1809;ListFischi1;0;;2;201;139390;14;15;1715;141105;259;1;1715;1;573;412;1456;1;1
TMS_Ibrahim;42;1;"<?xml version=""1.0""?>\n<Clock xmlns:dt=""urn:schemas-microsoft-com:datatypes""><Description dt:dt=""string"">E-Prime Primary Realtime Clock</Description><StartTime><Timestamp dt:dt=""int"">0</Timestamp><DateUtc dt:dt=""string"">2022-10-21T12:54:05Z</DateUtc></StartTime><FrequencyChanges><FrequencyChange><Frequency dt:dt=""r8"">3312880</Frequency><Timestamp dt:dt=""r8"">18711408497</Timestamp><Current dt:dt=""r8"">0</Current><DateUtc dt:dt=""string"">2022-10-21T12:54:05Z</DateUtc></FrequencyChange></FrequencyChanges></Clock>\n";TMS_Ibrahim-42-1;75029;100561;1;ve;1532181885;2010242;2010242;10/21/2022;21/10/2022 12:54;14:54:05;2010147;0;;-999999;46;60436;0;1;580;61016;1;1;1;2;1;1;1;BlockProcFischi;BlockList;1;125;0;;-999999;32;62783;0;1;1099;63882;1;1;1;1;ProcFischi1;ListBlockFischi;12;1;2;0;1;5;Pr8_B;150;1;op;5;2;5;1;12;1;0;TrialProc;772;711;Pr8_B;135;1603;1738;ListFischi1;0;;2;203;146738;10;15;1631;148369;239;1;1631;1;196;354;1392;1;1
TMS_Ibrahim;42;1;"<?xml version=""1.0""?>\n<Clock xmlns:dt=""urn:schemas-microsoft-com:datatypes""><Description dt:dt=""string"">E-Prime Primary Realtime Clock</Description><StartTime><Timestamp dt:dt=""int"">0</Timestamp><DateUtc dt:dt=""string"">2022-10-21T12:54:05Z</DateUtc></StartTime><FrequencyChanges><FrequencyChange><Frequency dt:dt=""r8"">3312880</Frequency><Timestamp dt:dt=""r8"">18711408497</Timestamp><Current dt:dt=""r8"">0</Current><DateUtc dt:dt=""string"">2022-10-21T12:54:05Z</DateUtc></FrequencyChange></FrequencyChanges></Clock>\n";TMS_Ibrahim-42-1;75029;100561;1;ve;1532181885;2010242;2010242;10/21/2022;21/10/2022 12:54;14:54:05;2010147;0;;-999999;46;60436;0;1;580;61016;1;1;1;2;1;1;1;BlockProcFischi;BlockList;1;125;0;;-999999;32;62783;0;1;1099;63882;1;1;1;1;ProcFischi1;ListBlockFischi;13;1;2;1;1;5;Prmod_B;150;1;op;5;2;16;1;13;1;0;TrialProc;750;1315;Prmod_B;149;1798;1648;ListFischi1;0;;3;201;154210;15;155;2607;156817;159;1;1823;1;635;477;1664;1;1
TMS_Ibrahim;42;1;"<?xml version=""1.0""?>\n<Clock xmlns:dt=""urn:schemas-microsoft-com:datatypes""><Description dt:dt=""string"">E-Prime Primary Realtime Clock</Description><StartTime><Timestamp dt:dt=""int"">0</Timestamp><DateUtc dt:dt=""string"">2022-10-21T12:54:05Z</DateUtc></StartTime><FrequencyChanges><FrequencyChange><Frequency dt:dt=""r8"">3312880</Frequency><Timestamp dt:dt=""r8"">18711408497</Timestamp><Current dt:dt=""r8"">0</Current><DateUtc dt:dt=""string"">2022-10-21T12:54:05Z</DateUtc></FrequencyChange></FrequencyChanges></Clock>\n";TMS_Ibrahim-42-1;75029;100561;1;ve;1532181885;2010242;2010242;10/21/2022;21/10/2022 12:54;14:54:05;2010147;0;;-999999;46;60436;0;1;580;61016;1;1;1;2;1;1;1;BlockProcFischi;BlockList;1;125;0;;-999999;32;62783;0;1;1099;63882;1;1;1;1;ProcFischi1;ListBlockFischi;14;1;1;0;1;3;Po5_B;250;2;op;3;2;46;1;14;2;0;TrialProc;683;983;Po5_B;0;1476;1476;ListFischi1;0;;2;203;160606;16;13;1506;162112;403;1;1506;1;500;408;1103;1;1
TMS_Ibrahim;42;1;"<?xml version=""1.0""?>\n<Clock xmlns:dt=""urn:schemas-microsoft-com:datatypes""><Description dt:dt=""string"">E-Prime Primary Realtime Clock</Description><StartTime><Timestamp dt:dt=""int"">0</Timestamp><DateUtc dt:dt=""string"">2022-10-21T12:54:05Z</DateUtc></StartTime><FrequencyChanges><FrequencyChange><Frequency dt:dt=""r8"">3312880</Frequency><Timestamp dt:dt=""r8"">18711408497</Timestamp><Current dt:dt=""r8"">0</Current><DateUtc dt:dt=""string"">2022-10-21T12:54:05Z</DateUtc></FrequencyChange></FrequencyChanges></Clock>\n";TMS_Ibrahim-42-1;75029;100561;1;ve;1532181885;2010242;2010242;10/21/2022;21/10/2022 12:54;14:54:05;2010147;0;;-999999;46;60436;0;1;580;61016;1;1;1;2;1;1;1;BlockProcFischi;BlockList;1;125;0;;-999999;32;62783;0;1;1099;63882;1;1;1;1;ProcFischi1;ListBlockFischi;15;1;2;0;0;3;Pr8_B;225;3;ug;3;2;21;1;15;3;1;TrialProc;649;713;Pr8_B;84;1655;1740;ListFischi1;0;;2;203;169660;12;13;1684;171344;260;1;1684;1;179;325;1424;1;1
TMS_Ibrahim;42;1;"<?xml version=""1.0""?>\n<Clock xmlns:dt=""urn:schemas-microsoft-com:datatypes""><Description dt:dt=""string"">E-Prime Primary Realtime Clock</Description><StartTime><Timestamp dt:dt=""int"">0</Timestamp><DateUtc dt:dt=""string"">2022-10-21T12:54:05Z</DateUtc></StartTime><FrequencyChanges><FrequencyChange><Frequency dt:dt=""r8"">3312880</Frequency><Timestamp dt:dt=""r8"">18711408497</Timestamp><Current dt:dt=""r8"">0</Current><DateUtc dt:dt=""string"">2022-10-21T12:54:05Z</DateUtc></FrequencyChange></FrequencyChanges></Clock>\n";TMS_Ibrahim-42-1;75029;100561;1;ve;1532181885;2010242;2010242;10/21/2022;21/10/2022 12:54;14:54:05;2010147;0;;-999999;46;60436;0;1;580;61016;1;1;1;2;1;1;1;BlockProcFischi;BlockList;1;125;0;;-999999;32;62783;0;1;1099;63882;1;1;1;1;ProcFischi1;ListBlockFischi;16;1;1;0;0;3;Po4_B;225;2;op;3;2;35;1;16;2;0;TrialProc;881;1345;Po4_B;352;1366;1718;ListFischi1;0;;3;201;176798;18;13;1394;178192;210;1;1394;1;111;577;1184;1;1
TMS_Ibrahim;42;1;"<?xml version=""1.0""?>\n<Clock xmlns:dt=""urn:schemas-microsoft-com:datatypes""><Description dt:dt=""string"">E-Prime Primary Realtime Clock</Description><StartTime><Timestamp dt:dt=""int"">0</Timestamp><DateUtc dt:dt=""string"">2022-10-21T12:54:05Z</DateUtc></StartTime><FrequencyChanges><FrequencyChange><Frequency dt:dt=""r8"">3312880</Frequency><Timestamp dt:dt=""r8"">18711408497</Timestamp><Current dt:dt=""r8"">0</Current><DateUtc dt:dt=""string"">2022-10-21T12:54:05Z</DateUtc></FrequencyChange></FrequencyChanges></Clock>\n";TMS_Ibrahim-42-1;75029;100561;1;ve;1532181885;2010242;2010242;10/21/2022;21/10/2022 12:54;14:54:05;2010147;0;;-999999;46;60436;0;1;580;61016;1;1;1;2;1;1;1;BlockProcFischi;BlockList;1;125;0;;-999999;32;62783;0;1;1099;63882;1;1;1;1;ProcFischi1;ListBlockFischi;17;1;2;0;0;3;Pr4_B;200;3;ug;3;2;19;1;17;3;1;TrialProc;654;670;Pr4_B;18;1262;1244;ListFischi1;0;;2;203;184564;9;13;1292;185856;220;1;1292;1;262;362;1072;1;1
TMS_Ibrahim;42;1;"<?xml version=""1.0""?>\n<Clock xmlns:dt=""urn:schemas-microsoft-com:datatypes""><Description dt:dt=""string"">E-Prime Primary Realtime Clock</Description><StartTime><Timestamp dt:dt=""int"">0</Timestamp><DateUtc dt:dt=""string"">2022-10-21T12:54:05Z</DateUtc></StartTime><FrequencyChanges><FrequencyChange><Frequency dt:dt=""r8"">3312880</Frequency><Timestamp dt:dt=""r8"">18711408497</Timestamp><Current dt:dt=""r8"">0</Current><DateUtc dt:dt=""string"">2022-10-21T12:54:05Z</DateUtc></FrequencyChange></FrequencyChanges></Clock>\n";TMS_Ibrahim-42-1;75029;100561;1;ve;1532181885;2010242;2010242;10/21/2022;21/10/2022 12:54;14:54:05;2010147;0;;-999999;46;60436;0;1;580;61016;1;1;1;2;1;1;1;BlockProcFischi;BlockList;1;125;0;;-999999;32;62783;0;1;1099;63882;1;1;1;1;ProcFischi1;ListBlockFischi;18;1;2;0;1;5;Pr5_B;150;1;op;5;2;4;1;18;1;0;TrialProc;458;672;Pr5_B;155;1428;1273;ListFischi1;0;;2;203;192105;12;155;3798;195903;38;1;1462;1;2202;391;1424;1;1
TMS_Ibrahim;42;1;"<?xml version=""1.0""?>\n<Clock xmlns:dt=""urn:schemas-microsoft-com:datatypes""><Description dt:dt=""string"">E-Prime Primary Realtime Clock</Description><StartTime><Timestamp dt:dt=""int"">0</Timestamp><DateUtc dt:dt=""string"">2022-10-21T12:54:05Z</DateUtc></StartTime><FrequencyChanges><FrequencyChange><Frequency dt:dt=""r8"">3312880</Frequency><Timestamp dt:dt=""r8"">18711408497</Timestamp><Current dt:dt=""r8"">0</Current><DateUtc dt:dt=""string"">2022-10-21T12:54:05Z</DateUtc></FrequencyChange></FrequencyChanges></Clock>\n";TMS_Ibrahim-42-1;75029;100561;1;ve;1532181885;2010242;2010242;10/21/2022;21/10/2022 12:54;14:54:05;2010147;0;;-999999;46;60436;0;1;580;61016;1;1;1;2;1;1;1;BlockProcFischi;BlockList;1;125;0;;-999999;32;62783;0;1;1099;63882;1;1;1;1;ProcFischi1;ListBlockFischi;19;1;2;0;0;3;Pr2_B;175;3;ug;3;2;27;1;19;3;1;TrialProc;1160;6000;Pr2_B;17;6000;6000;ListFischi1;0;;3;201;197620;14;13;1292;198912;427;1;1292;1;443;320;865;1;1
TMS_Ibrahim;42;1;"<?xml version=""1.0""?>\n<Clock xmlns:dt=""urn:schemas-microsoft-com:datatypes""><Description dt:dt=""string"">E-Prime Primary Realtime Clock</Description><StartTime><Timestamp dt:dt=""int"">0</Timestamp><DateUtc dt:dt=""string"">2022-10-21T12:54:05Z</DateUtc></StartTime><FrequencyChanges><FrequencyChange><Frequency dt:dt=""r8"">3312880</Frequency><Timestamp dt:dt=""r8"">18711408497</Timestamp><Current dt:dt=""r8"">0</Current><DateUtc dt:dt=""string"">2022-10-21T12:54:05Z</DateUtc></FrequencyChange></FrequencyChanges></Clock>\n";TMS_Ibrahim-42-1;75029;100561;1;ve;1532181885;2010242;2010242;10/21/2022;21/10/2022 12:54;14:54:05;2010147;0;;-999999;46;60436;0;1;580;61016;1;1;1;2;1;1;1;BlockProcFischi;BlockList;1;125;0;;-999999;32;62783;0;1;1099;63882;1;1;1;1;ProcFischi1;ListBlockFischi;20;1;2;0;0;3;Pr3_B;150;3;ug;3;2;18;1;20;3;1;TrialProc;2036;716;Pr3_B;55;1661;1716;ListFischi1;0;;2;203;204976;16;13;1695;206671;351;1;1695;1;393;557;1344;1;1
TMS_Ibrahim;42;1;"<?xml version=""1.0""?>\n<Clock xmlns:dt=""urn:schemas-microsoft-com:datatypes""><Description dt:dt=""string"">E-Prime Primary Realtime Clock</Description><StartTime><Timestamp dt:dt=""int"">0</Timestamp><DateUtc dt:dt=""string"">2022-10-21T12:54:05Z</DateUtc></StartTime><FrequencyChanges><FrequencyChange><Frequency dt:dt=""r8"">3312880</Frequency><Timestamp dt:dt=""r8"">18711408497</Timestamp><Current dt:dt=""r8"">0</Current><DateUtc dt:dt=""string"">2022-10-21T12:54:05Z</DateUtc></FrequencyChange></FrequencyChanges></Clock>\n";TMS_Ibrahim-42-1;75029;100561;1;ve;1532181885;2010242;2010242;10/21/2022;21/10/2022 12:54;14:54:05;2010147;0;;-999999;46;60436;0;1;580;61016;1;1;1;2;1;1;1;BlockProcFischi;BlockList;1;125;0;;-999999;32;62783;0;1;1099;63882;1;1;1;1;ProcFischi1;ListBlockFischi;21;1;1;0;0;5;Po5_B;225;4;ug;5;2;57;1;21;4;1;TrialProc;1034;984;Po5_B;15;1462;1477;ListFischi1;0;;2;201;212161;14;15;1486;213647;334;1;1486;1;297;466;1152;1;1
TMS_Ibrahim;42;1;"<?xml version=""1.0""?>\n<Clock xmlns:dt=""urn:schemas-microsoft-com:datatypes""><Description dt:dt=""string"">E-Prime Primary Realtime Clock</Description><StartTime><Timestamp dt:dt=""int"">0</Timestamp><DateUtc dt:dt=""string"">2022-10-21T12:54:05Z</DateUtc></StartTime><FrequencyChanges><FrequencyChange><Frequency dt:dt=""r8"">3312880</Frequency><Timestamp dt:dt=""r8"">18711408497</Timestamp><Current dt:dt=""r8"">0</Current><DateUtc dt:dt=""string"">2022-10-21T12:54:05Z</DateUtc></FrequencyChange></FrequencyChanges></Clock>\n";TMS_Ibrahim-42-1;75029;100561;1;ve;1532181885;2010242;2010242;10/21/2022;21/10/2022 12:54;14:54:05;2010147;0;;-999999;46;60436;0;1;580;61016;1;1;1;2;1;1;1;BlockProcFischi;BlockList;1;125;0;;-999999;32;62783;0;1;1099;63882;1;1;1;1;ProcFischi1;ListBlockFischi;22;1;2;0;1;5;Pr2_B;150;1;op;5;2;1;1;22;1;0;TrialProc;625;710;Pr2_B;106;1348;1242;ListFischi1;0;;2;203;219645;7;15;1377;221022;225;1;1377;1;809;355;1152;1;1
TMS_Ibrahim;42;1;"<?xml version=""1.0""?>\n<Clock xmlns:dt=""urn:schemas-microsoft-com:datatypes""><Description dt:dt=""string"">E-Prime Primary Realtime Clock</Description><StartTime><Timestamp dt:dt=""int"">0</Timestamp><DateUtc dt:dt=""string"">2022-10-21T12:54:05Z</DateUtc></StartTime><FrequencyChanges><FrequencyChange><Frequency dt:dt=""r8"">3312880</Frequency><Timestamp dt:dt=""r8"">18711408497</Timestamp><Current dt:dt=""r8"">0</Current><DateUtc dt:dt=""string"">2022-10-21T12:54:05Z</DateUtc></FrequencyChange></FrequencyChanges></Clock>\n";TMS_Ibrahim-42-1;75029;100561;1;ve;1532181885;2010242;2010242;10/21/2022;21/10/2022 12:54;14:54:05;2010147;0;;-999999;46;60436;0;1;580;61016;1;1;1;2;1;1;1;BlockProcFischi;BlockList;1;125;0;;-999999;32;62783;0;1;1099;63882;1;1;1;1;ProcFischi1;ListBlockFischi;23;1;2;1;0;3;Prmod_B;125;3;ug;3;2;32;1;23;3;1;TrialProc;741;1314;Prmod_B;69;1716;1647;ListFischi1;0;;2;203;226677;13;133;2793;229470;217;1;1737;1;648;290;1520;1;1
TMS_Ibrahim;42;1;"<?xml version=""1.0""?>\n<Clock xmlns:dt=""urn:schemas-microsoft-com:datatypes""><Description dt:dt=""string"">E-Prime Primary Realtime Clock</Description><StartTime><Timestamp dt:dt=""int"">0</Timestamp><DateUtc dt:dt=""string"">2022-10-21T12:54:05Z</DateUtc></StartTime><FrequencyChanges><FrequencyChange><Frequency dt:dt=""r8"">3312880</Frequency><Timestamp dt:dt=""r8"">18711408497</Timestamp><Current dt:dt=""r8"">0</Current><DateUtc dt:dt=""string"">2022-10-21T12:54:05Z</DateUtc></FrequencyChange></FrequencyChanges></Clock>\n";TMS_Ibrahim-42-1;75029;100561;1;ve;1532181885;2010242;2010242;10/21/2022;21/10/2022 12:54;14:54:05;2010147;0;;-999999;46;60436;0;1;580;61016;1;1;1;2;1;1;1;BlockProcFischi;BlockList;1;125;0;;-999999;32;62783;0;1;1099;63882;1;1;1;1;ProcFischi1;ListBlockFischi;24;1;1;0;1;3;Po8_B;225;2;op;3;2;37;1;24;2;0;TrialProc;1299;1249;Po8_B;109;1692;1583;ListFischi1;0;;3;201;232845;16;13;1713;234558;289;1;1713;1;964;517;1424;1;1
TMS_Ibrahim;42;1;"<?xml version=""1.0""?>\n<Clock xmlns:dt=""urn:schemas-microsoft-com:datatypes""><Description dt:dt=""string"">E-Prime Primary Realtime Clock</Description><StartTime><Timestamp dt:dt=""int"">0</Timestamp><DateUtc dt:dt=""string"">2022-10-21T12:54:05Z</DateUtc></StartTime><FrequencyChanges><FrequencyChange><Frequency dt:dt=""r8"">3312880</Frequency><Timestamp dt:dt=""r8"">18711408497</Timestamp><Current dt:dt=""r8"">0</Current><DateUtc dt:dt=""string"">2022-10-21T12:54:05Z</DateUtc></FrequencyChange></FrequencyChanges></Clock>\n";TMS_Ibrahim-42-1;75029;100561;1;ve;1532181885;2010242;2010242;10/21/2022;21/10/2022 12:54;14:54:05;2010147;0;;-999999;46;60436;0;1;580;61016;1;1;1;2;1;1;1;BlockProcFischi;BlockList;1;125;0;;-999999;32;62783;0;1;1099;63882;1;1;1;1;ProcFischi1;ListBlockFischi;25;1;1;0;0;5;Po2_B;200;4;ug;5;2;49;1;25;4;1;TrialProc;1699;1580;Po2_B;76;1730;1807;ListFischi1;0;;2;203;240152;12;15;1766;241918;262;1;1766;1;686;203;1504;1;1
TMS_Ibrahim;42;1;"<?xml version=""1.0""?>\n<Clock xmlns:dt=""urn:schemas-microsoft-com:datatypes""><Description dt:dt=""string"">E-Prime Primary Realtime Clock</Description><StartTime><Timestamp dt:dt=""int"">0</Timestamp><DateUtc dt:dt=""string"">2022-10-21T12:54:05Z</DateUtc></StartTime><FrequencyChanges><FrequencyChange><Frequency dt:dt=""r8"">3312880</Frequency><Timestamp dt:dt=""r8"">18711408497</Timestamp><Current dt:dt=""r8"">0</Current><DateUtc dt:dt=""string"">2022-10-21T12:54:05Z</DateUtc></FrequencyChange></FrequencyChanges></Clock>\n";TMS_Ibrahim-42-1;75029;100561;1;ve;1532181885;2010242;2010242;10/21/2022;21/10/2022 12:54;14:54:05;2010147;0;;-999999;46;60436;0;1;580;61016;1;1;1;2;1;1;1;BlockProcFischi;BlockList;1;125;0;;-999999;32;62783;0;1;1099;63882;1;1;1;1;ProcFischi1;ListBlockFischi;26;1;1;0;0;3;Po5_B;200;2;op;3;2;36;1;26;2;0;TrialProc;1403;981;Po5_B;55;1418;1473;ListFischi1;0;;2;201;247282;13;13;1451;248733;283;1;1451;1;707;298;1168;1;1
TMS_Ibrahim;42;1;"<?xml version=""1.0""?>\n<Clock xmlns:dt=""urn:schemas-microsoft-com:datatypes""><Description dt:dt=""string"">E-Prime Primary Realtime Clock</Description><StartTime><Timestamp dt:dt=""int"">0</Timestamp><DateUtc dt:dt=""string"">2022-10-21T12:54:05Z</DateUtc></StartTime><FrequencyChanges><FrequencyChange><Frequency dt:dt=""r8"">3312880</Frequency><Timestamp dt:dt=""r8"">18711408497</Timestamp><Current dt:dt=""r8"">0</Current><DateUtc dt:dt=""string"">2022-10-21T12:54:05Z</DateUtc></FrequencyChange></FrequencyChanges></Clock>\n";TMS_Ibrahim-42-1;75029;100561;1;ve;1532181885;2010242;2010242;10/21/2022;21/10/2022 12:54;14:54:05;2010147;0;;-999999;46;60436;0;1;580;61016;1;1;1;2;1;1;1;BlockProcFischi;BlockList;1;125;0;;-999999;32;62783;0;1;1099;63882;1;1;1;1;ProcFischi1;ListBlockFischi;27;1;2;0;0;3;Pr4_B;100;3;ug;3;2;24;1;27;3;1;TrialProc;3592;669;Pr4_B;0;1243;1243;ListFischi1;0;;2;203;254643;9;13;1274;255917;234;1;1274;1;269;377;1040;1;1
TMS_Ibrahim;42;1;"<?xml version=""1.0""?>\n<Clock xmlns:dt=""urn:schemas-microsoft-com:datatypes""><Description dt:dt=""string"">E-Prime Primary Realtime Clock</Description><StartTime><Timestamp dt:dt=""int"">0</Timestamp><DateUtc dt:dt=""string"">2022-10-21T12:54:05Z</DateUtc></StartTime><FrequencyChanges><FrequencyChange><Frequency dt:dt=""r8"">3312880</Frequency><Timestamp dt:dt=""r8"">18711408497</Timestamp><Current dt:dt=""r8"">0</Current><DateUtc dt:dt=""string"">2022-10-21T12:54:05Z</DateUtc></FrequencyChange></FrequencyChanges></Clock>\n";TMS_Ibrahim-42-1;75029;100561;1;ve;1532181885;2010242;2010242;10/21/2022;21/10/2022 12:54;14:54:05;2010147;0;;-999999;46;60436;0;1;580;61016;1;1;1;2;1;1;1;BlockProcFischi;BlockList;1;125;0;;-999999;32;62783;0;1;1099;63882;1;1;1;1;ProcFischi1;ListBlockFischi;28;1;1;0;0;3;Po3_B;175;2;op;3;2;44;1;28;2;0;TrialProc;1026;1315;Po3_B;185;1396;1580;ListFischi1;0;;2;201;262011;12;133;2242;264253;274;1;1426;1;701;238;1152;1;1
TMS_Ibrahim;42;1;"<?xml version=""1.0""?>\n<Clock xmlns:dt=""urn:schemas-microsoft-com:datatypes""><Description dt:dt=""string"">E-Prime Primary Realtime Clock</Description><StartTime><Timestamp dt:dt=""int"">0</Timestamp><DateUtc dt:dt=""string"">2022-10-21T12:54:05Z</DateUtc></StartTime><FrequencyChanges><FrequencyChange><Frequency dt:dt=""r8"">3312880</Frequency><Timestamp dt:dt=""r8"">18711408497</Timestamp><Current dt:dt=""r8"">0</Current><DateUtc dt:dt=""string"">2022-10-21T12:54:05Z</DateUtc></FrequencyChange></FrequencyChanges></Clock>\n";TMS_Ibrahim-42-1;75029;100561;1;ve;1532181885;2010242;2010242;10/21/2022;21/10/2022 12:54;14:54:05;2010147;0;;-999999;46;60436;0;1;580;61016;1;1;1;2;1;1;1;BlockProcFischi;BlockList;1;125;0;;-999999;32;62783;0;1;1099;63882;1;1;1;1;ProcFischi1;ListBlockFischi;29;1;1;0;0;5;Po3_B;175;4;ug;5;2;60;1;29;4;1;TrialProc;1586;1313;Po3_B;23;1556;1579;ListFischi1;0;;2;203;268968;12;15;1589;270557;341;1;1589;1;993;359;1248;1;1
TMS_Ibrahim;42;1;"<?xml version=""1.0""?>\n<Clock xmlns:dt=""urn:schemas-microsoft-com:datatypes""><Description dt:dt=""string"">E-Prime Primary Realtime Clock</Description><StartTime><Timestamp dt:dt=""int"">0</Timestamp><DateUtc dt:dt=""string"">2022-10-21T12:54:05Z</DateUtc></StartTime><FrequencyChanges><FrequencyChange><Frequency dt:dt=""r8"">3312880</Frequency><Timestamp dt:dt=""r8"">18711408497</Timestamp><Current dt:dt=""r8"">0</Current><DateUtc dt:dt=""string"">2022-10-21T12:54:05Z</DateUtc></FrequencyChange></FrequencyChanges></Clock>\n";TMS_Ibrahim-42-1;75029;100561;1;ve;1532181885;2010242;2010242;10/21/2022;21/10/2022 12:54;14:54:05;2010147;0;;-999999;46;60436;0;1;580;61016;1;1;1;2;1;1;1;BlockProcFischi;BlockList;1;125;0;;-999999;32;62783;0;1;1099;63882;1;1;1;1;ProcFischi1;ListBlockFischi;30;1;1;0;0;3;Po4_B;175;2;op;3;2;40;1;30;2;0;TrialProc;867;1342;Po4_B;306;1409;1714;ListFischi1;0;;3;201;276563;14;13;1433;277996;185;1;1433;1;495;424;1248;1;1
TMS_Ibrahim;42;1;"<?xml version=""1.0""?>\n<Clock xmlns:dt=""urn:schemas-microsoft-com:datatypes""><Description dt:dt=""string"">E-Prime Primary Realtime Clock</Description><StartTime><Timestamp dt:dt=""int"">0</Timestamp><DateUtc dt:dt=""string"">2022-10-21T12:54:05Z</DateUtc></StartTime><FrequencyChanges><FrequencyChange><Frequency dt:dt=""r8"">3312880</Frequency><Timestamp dt:dt=""r8"">18711408497</Timestamp><Current dt:dt=""r8"">0</Current><DateUtc dt:dt=""string"">2022-10-21T12:54:05Z</DateUtc></FrequencyChange></FrequencyChanges></Clock>\n";TMS_Ibrahim-42-1;75029;100561;1;ve;1532181885;2010242;2010242;10/21/2022;21/10/2022 12:54;14:54:05;2010147;0;;-999999;46;60436;0;1;580;61016;1;1;1;2;1;1;1;BlockProcFischi;BlockList;1;125;0;;-999999;32;62783;0;1;1099;63882;1;1;1;1;ProcFischi1;ListBlockFischi;31;1;1;0;0;5;Po4_B;150;4;ug;5;2;56;1;31;4;1;TrialProc;762;1342;Po4_B;179;1536;1715;ListFischi1;0;;2;203;284080;14;15;1564;285644;284;1;1564;1;445;322;1280;1;1
TMS_Ibrahim;42;1;"<?xml version=""1.0""?>\n<Clock xmlns:dt=""urn:schemas-microsoft-com:datatypes""><Description dt:dt=""string"">E-Prime Primary Realtime Clock</Description><StartTime><Timestamp dt:dt=""int"">0</Timestamp><DateUtc dt:dt=""string"">2022-10-21T12:54:05Z</DateUtc></StartTime><FrequencyChanges><FrequencyChange><Frequency dt:dt=""r8"">3312880</Frequency><Timestamp dt:dt=""r8"">18711408497</Timestamp><Current dt:dt=""r8"">0</Current><DateUtc dt:dt=""string"">2022-10-21T12:54:05Z</DateUtc></FrequencyChange></FrequencyChanges></Clock>\n";TMS_Ibrahim-42-1;75029;100561;1;ve;1532181885;2010242;2010242;10/21/2022;21/10/2022 12:54;14:54:05;2010147;0;;-999999;46;60436;0;1;580;61016;1;1;1;2;1;1;1;BlockProcFischi;BlockList;1;125;0;;-999999;32;62783;0;1;1099;63882;1;1;1;1;ProcFischi1;ListBlockFischi;32;1;2;0;0;3;Pr5_B;75;3;ug;3;2;20;1;32;3;1;TrialProc;748;674;Pr5_B;138;1412;1274;ListFischi1;0;;2;203;291691;13;13;1441;293132;305;1;1441;1;1818;550;1136;1;1
TMS_Ibrahim;42;1;"<?xml version=""1.0""?>\n<Clock xmlns:dt=""urn:schemas-microsoft-com:datatypes""><Description dt:dt=""string"">E-Prime Primary Realtime Clock</Description><StartTime><Timestamp dt:dt=""int"">0</Timestamp><DateUtc dt:dt=""string"">2022-10-21T12:54:05Z</DateUtc></StartTime><FrequencyChanges><FrequencyChange><Frequency dt:dt=""r8"">3312880</Frequency><Timestamp dt:dt=""r8"">18711408497</Timestamp><Current dt:dt=""r8"">0</Current><DateUtc dt:dt=""string"">2022-10-21T12:54:05Z</DateUtc></FrequencyChange></FrequencyChanges></Clock>\n";TMS_Ibrahim-42-1;75029;100561;1;ve;1532181885;2010242;2010242;10/21/2022;21/10/2022 12:54;14:54:05;2010147;0;;-999999;46;60436;0;1;580;61016;1;1;1;2;1;1;1;BlockProcFischi;BlockList;1;125;0;;-999999;32;62783;0;1;1099;63882;1;1;1;1;ProcFischi1;ListBlockFischi;33;1;1;0;1;5;Po3_B;150;4;ug;5;2;50;1;33;4;1;TrialProc;926;1313;Po3_B;187;1767;1580;ListFischi1;0;;3;201;298942;13;155;2525;301467;254;1;1789;1;1099;312;1535;1;1
TMS_Ibrahim;42;1;"<?xml version=""1.0""?>\n<Clock xmlns:dt=""urn:schemas-microsoft-com:datatypes""><Description dt:dt=""string"">E-Prime Primary Realtime Clock</Description><StartTime><Timestamp dt:dt=""int"">0</Timestamp><DateUtc dt:dt=""string"">2022-10-21T12:54:05Z</DateUtc></StartTime><FrequencyChanges><FrequencyChange><Frequency dt:dt=""r8"">3312880</Frequency><Timestamp dt:dt=""r8"">18711408497</Timestamp><Current dt:dt=""r8"">0</Current><DateUtc dt:dt=""string"">2022-10-21T12:54:05Z</DateUtc></FrequencyChange></FrequencyChanges></Clock>\n";TMS_Ibrahim-42-1;75029;100561;1;ve;1532181885;2010242;2010242;10/21/2022;21/10/2022 12:54;14:54:05;2010147;0;;-999999;46;60436;0;1;580;61016;1;1;1;2;1;1;1;BlockProcFischi;BlockList;1;125;0;;-999999;32;62783;0;1;1099;63882;1;1;1;1;ProcFischi1;ListBlockFischi;34;1;1;0;2;5;Po8_B;150;4;ug;5;2;53;1;34;4;1;TrialProc;421;1249;Po8_B;90;1673;1582;ListFischi1;0;;2;203;305577;15;155;3250;308827;338;1;1698;1;2063;393;1360;1;1
TMS_Ibrahim;42;1;"<?xml version=""1.0""?>\n<Clock xmlns:dt=""urn:schemas-microsoft-com:datatypes""><Description dt:dt=""string"">E-Prime Primary Realtime Clock</Description><StartTime><Timestamp dt:dt=""int"">0</Timestamp><DateUtc dt:dt=""string"">2022-10-21T12:54:05Z</DateUtc></StartTime><FrequencyChanges><FrequencyChange><Frequency dt:dt=""r8"">3312880</Frequency><Timestamp dt:dt=""r8"">18711408497</Timestamp><Current dt:dt=""r8"">0</Current><DateUtc dt:dt=""string"">2022-10-21T12:54:05Z</DateUtc></FrequencyChange></FrequencyChanges></Clock>\n";TMS_Ibrahim-42-1;75029;100561;1;ve;1532181885;2010242;2010242;10/21/2022;21/10/2022 12:54;14:54:05;2010147;0;;-999999;46;60436;0;1;580;61016;1;1;1;2;1;1;1;BlockProcFischi;BlockList;1;125;0;;-999999;32;62783;0;1;1099;63882;1;1;1;1;ProcFischi1;ListBlockFischi;35;1;1;0;0;5;Po5_B;125;4;ug;5;2;62;1;35;4;1;TrialProc;757;978;Po5_B;95;1377;1472;ListFischi1;0;;3;201;312192;11;15;1403;313595;347;1;1403;1;2212;234;1056;1;1
TMS_Ibrahim;42;1;"<?xml version=""1.0""?>\n<Clock xmlns:dt=""urn:schemas-microsoft-com:datatypes""><Description dt:dt=""string"">E-Prime Primary Realtime Clock</Description><StartTime><Timestamp dt:dt=""int"">0</Timestamp><DateUtc dt:dt=""string"">2022-10-21T12:54:05Z</DateUtc></StartTime><FrequencyChanges><FrequencyChange><Frequency dt:dt=""r8"">3312880</Frequency><Timestamp dt:dt=""r8"">18711408497</Timestamp><Current dt:dt=""r8"">0</Current><DateUtc dt:dt=""string"">2022-10-21T12:54:05Z</DateUtc></FrequencyChange></FrequencyChanges></Clock>\n";TMS_Ibrahim-42-1;75029;100561;1;ve;1532181885;2010242;2010242;10/21/2022;21/10/2022 12:54;14:54:05;2010147;0;;-999999;46;60436;0;1;580;61016;1;1;1;2;1;1;1;BlockProcFischi;BlockList;1;125;0;;-999999;32;62783;0;1;1099;63882;1;1;1;1;ProcFischi1;ListBlockFischi;36;1;1;1;1;3;Pomod_B;175;2;op;3;2;48;1;36;2;0;TrialProc;594;1308;Pomod_B;260;1929;1669;ListFischi1;0;;2;203;319685;8;13;1958;321643;311;1;1958;1;3209;555;1647;1;1
TMS_Ibrahim;42;1;"<?xml version=""1.0""?>\n<Clock xmlns:dt=""urn:schemas-microsoft-com:datatypes""><Description dt:dt=""string"">E-Prime Primary Realtime Clock</Description><StartTime><Timestamp dt:dt=""int"">0</Timestamp><DateUtc dt:dt=""string"">2022-10-21T12:54:05Z</DateUtc></StartTime><FrequencyChanges><FrequencyChange><Frequency dt:dt=""r8"">3312880</Frequency><Timestamp dt:dt=""r8"">18711408497</Timestamp><Current dt:dt=""r8"">0</Current><DateUtc dt:dt=""string"">2022-10-21T12:54:05Z</DateUtc></FrequencyChange></FrequencyChanges></Clock>\n";TMS_Ibrahim-42-1;75029;100561;1;ve;1532181885;2010242;2010242;10/21/2022;21/10/2022 12:54;14:54:05;2010147;0;;-999999;46;60436;0;1;580;61016;1;1;1;2;1;1;1;BlockProcFischi;BlockList;1;125;0;;-999999;32;62783;0;1;1099;63882;1;1;1;1;ProcFischi1;ListBlockFischi;37;1;2;0;1;3;Pr4_B;75;3;ug;3;2;29;1;37;3;1;TrialProc;579;676;Pr4_B;302;1552;1249;ListFischi1;0;;2;203;326836;14;13;1575;328411;391;1;1575;1;1684;475;1184;1;1
TMS_Ibrahim;42;1;"<?xml version=""1.0""?>\n<Clock xmlns:dt=""urn:schemas-microsoft-com:datatypes""><Description dt:dt=""string"">E-Prime Primary Realtime Clock</Description><StartTime><Timestamp dt:dt=""int"">0</Timestamp><DateUtc dt:dt=""string"">2022-10-21T12:54:05Z</DateUtc></StartTime><FrequencyChanges><FrequencyChange><Frequency dt:dt=""r8"">3312880</Frequency><Timestamp dt:dt=""r8"">18711408497</Timestamp><Current dt:dt=""r8"">0</Current><DateUtc dt:dt=""string"">2022-10-21T12:54:05Z</DateUtc></FrequencyChange></FrequencyChanges></Clock>\n";TMS_Ibrahim-42-1;75029;100561;1;ve;1532181885;2010242;2010242;10/21/2022;21/10/2022 12:54;14:54:05;2010147;0;;-999999;46;60436;0;1;580;61016;1;1;1;2;1;1;1;BlockProcFischi;BlockList;1;125;0;;-999999;32;62783;0;1;1099;63882;1;1;1;1;ProcFischi1;ListBlockFischi;38;1;2;0;0;5;Pr4_B;125;1;op;5;2;13;1;38;1;0;TrialProc;628;679;Pr4_B;195;1446;1251;ListFischi1;0;;3;201;334044;17;15;1470;335514;174;1;1470;1;2114;283;1296;1;1
TMS_Ibrahim;42;1;"<?xml version=""1.0""?>\n<Clock xmlns:dt=""urn:schemas-microsoft-com:datatypes""><Description dt:dt=""string"">E-Prime Primary Realtime Clock</Description><StartTime><Timestamp dt:dt=""int"">0</Timestamp><DateUtc dt:dt=""string"">2022-10-21T12:54:05Z</DateUtc></StartTime><FrequencyChanges><FrequencyChange><Frequency dt:dt=""r8"">3312880</Frequency><Timestamp dt:dt=""r8"">18711408497</Timestamp><Current dt:dt=""r8"">0</Current><DateUtc dt:dt=""string"">2022-10-21T12:54:05Z</DateUtc></FrequencyChange></FrequencyChanges></Clock>\n";TMS_Ibrahim-42-1;75029;100561;1;ve;1532181885;2010242;2010242;10/21/2022;21/10/2022 12:54;14:54:05;2010147;0;;-999999;46;60436;0;1;580;61016;1;1;1;2;1;1;1;BlockProcFischi;BlockList;1;125;0;;-999999;32;62783;0;1;1099;63882;1;1;1;1;ProcFischi1;ListBlockFischi;39;1;1;0;0;5;Po4_B;100;4;ug;5;2;51;1;39;4;1;TrialProc;483;1339;Po4_B;171;1542;1713;ListFischi1;0;;2;203;342032;12;15;1562;343594;170;1;1562;1;2425;210;1392;1;1
TMS_Ibrahim;42;1;"<?xml version=""1.0""?>\n<Clock xmlns:dt=""urn:schemas-microsoft-com:datatypes""><Description dt:dt=""string"">E-Prime Primary Realtime Clock</Description><StartTime><Timestamp dt:dt=""int"">0</Timestamp><DateUtc dt:dt=""string"">2022-10-21T12:54:05Z</DateUtc></StartTime><FrequencyChanges><FrequencyChange><Frequency dt:dt=""r8"">3312880</Frequency><Timestamp dt:dt=""r8"">18711408497</Timestamp><Current dt:dt=""r8"">0</Current><DateUtc dt:dt=""string"">2022-10-21T12:54:05Z</DateUtc></FrequencyChange></FrequencyChanges></Clock>\n";TMS_Ibrahim-42-1;75029;100561;1;ve;1532181885;2010242;2010242;10/21/2022;21/10/2022 12:54;14:54:05;2010147;0;;-999999;46;60436;0;1;580;61016;1;1;1;2;1;1;1;BlockProcFischi;BlockList;1;125;0;;-999999;32;62783;0;1;1099;63882;1;1;1;1;ProcFischi1;ListBlockFischi;40;1;2;0;1;5;Pr5_B;125;1;op;5;2;14;1;40;1;0;TrialProc;713;677;Pr5_B;172;1449;1277;ListFischi1;0;;3;201;349306;16;1555;2240;351546;368;1;1472;1;1083;261;1104;1;1
TMS_Ibrahim;42;1;"<?xml version=""1.0""?>\n<Clock xmlns:dt=""urn:schemas-microsoft-com:datatypes""><Description dt:dt=""string"">E-Prime Primary Realtime Clock</Description><StartTime><Timestamp dt:dt=""int"">0</Timestamp><DateUtc dt:dt=""string"">2022-10-21T12:54:05Z</DateUtc></StartTime><FrequencyChanges><FrequencyChange><Frequency dt:dt=""r8"">3312880</Frequency><Timestamp dt:dt=""r8"">18711408497</Timestamp><Current dt:dt=""r8"">0</Current><DateUtc dt:dt=""string"">2022-10-21T12:54:05Z</DateUtc></FrequencyChange></FrequencyChanges></Clock>\n";TMS_Ibrahim-42-1;75029;100561;1;ve;1532181885;2010242;2010242;10/21/2022;21/10/2022 12:54;14:54:05;2010147;0;;-999999;46;60436;0;1;580;61016;1;1;1;2;1;1;1;BlockProcFischi;BlockList;1;125;0;;-999999;32;62783;0;1;1099;63882;1;1;1;1;ProcFischi1;ListBlockFischi;41;1;2;0;2;3;Pr3_B;75;3;ug;3;2;23;1;41;3;1;TrialProc;595;708;Pr3_B;158;1549;1707;ListFischi1;0;;2;203;355858;8;13;1576;357434;216;1;1576;1;610;219;1360;1;1
TMS_Ibrahim;42;1;"<?xml version=""1.0""?>\n<Clock xmlns:dt=""urn:schemas-microsoft-com:datatypes""><Description dt:dt=""string"">E-Prime Primary Realtime Clock</Description><StartTime><Timestamp dt:dt=""int"">0</Timestamp><DateUtc dt:dt=""string"">2022-10-21T12:54:05Z</DateUtc></StartTime><FrequencyChanges><FrequencyChange><Frequency dt:dt=""r8"">3312880</Frequency><Timestamp dt:dt=""r8"">18711408497</Timestamp><Current dt:dt=""r8"">0</Current><DateUtc dt:dt=""string"">2022-10-21T12:54:05Z</DateUtc></FrequencyChange></FrequencyChanges></Clock>\n";TMS_Ibrahim-42-1;75029;100561;1;ve;1532181885;2010242;2010242;10/21/2022;21/10/2022 12:54;14:54:05;2010147;0;;-999999;46;60436;0;1;580;61016;1;1;1;2;1;1;1;BlockProcFischi;BlockList;1;125;0;;-999999;32;62783;0;1;1099;63882;1;1;1;1;ProcFischi1;ListBlockFischi;42;1;2;0;2;5;Pr4_B;125;1;op;5;2;8;1;42;1;0;TrialProc;591;667;Pr4_B;137;1378;1240;ListFischi1;0;;2;203;363484;6;15;1405;364889;205;1;1405;1;1278;552;1200;1;1
TMS_Ibrahim;42;1;"<?xml version=""1.0""?>\n<Clock xmlns:dt=""urn:schemas-microsoft-com:datatypes""><Description dt:dt=""string"">E-Prime Primary Realtime Clock</Description><StartTime><Timestamp dt:dt=""int"">0</Timestamp><DateUtc dt:dt=""string"">2022-10-21T12:54:05Z</DateUtc></StartTime><FrequencyChanges><FrequencyChange><Frequency dt:dt=""r8"">3312880</Frequency><Timestamp dt:dt=""r8"">18711408497</Timestamp><Current dt:dt=""r8"">0</Current><DateUtc dt:dt=""string"">2022-10-21T12:54:05Z</DateUtc></FrequencyChange></FrequencyChanges></Clock>\n";TMS_Ibrahim-42-1;75029;100561;1;ve;1532181885;2010242;2010242;10/21/2022;21/10/2022 12:54;14:54:05;2010147;0;;-999999;46;60436;0;1;580;61016;1;1;1;2;1;1;1;BlockProcFischi;BlockList;1;125;0;;-999999;32;62783;0;1;1099;63882;1;1;1;1;ProcFischi1;ListBlockFischi;43;1;1;0;2;3;Po8_B;175;2;op;3;2;42;1;43;2;0;TrialProc;564;1246;Po8_B;55;1524;1579;ListFischi1;0;;3;201;370742;11;133;3123;373865;243;1;1555;1;854;489;1312;1;1
TMS_Ibrahim;42;1;"<?xml version=""1.0""?>\n<Clock xmlns:dt=""urn:schemas-microsoft-com:datatypes""><Description dt:dt=""string"">E-Prime Primary Realtime Clock</Description><StartTime><Timestamp dt:dt=""int"">0</Timestamp><DateUtc dt:dt=""string"">2022-10-21T12:54:05Z</DateUtc></StartTime><FrequencyChanges><FrequencyChange><Frequency dt:dt=""r8"">3312880</Frequency><Timestamp dt:dt=""r8"">18711408497</Timestamp><Current dt:dt=""r8"">0</Current><DateUtc dt:dt=""string"">2022-10-21T12:54:05Z</DateUtc></FrequencyChange></FrequencyChanges></Clock>\n";TMS_Ibrahim-42-1;75029;100561;1;ve;1532181885;2010242;2010242;10/21/2022;21/10/2022 12:54;14:54:05;2010147;0;;-999999;46;60436;0;1;580;61016;1;1;1;2;1;1;1;BlockProcFischi;BlockList;1;125;0;;-999999;32;62783;0;1;1099;63882;1;1;1;1;ProcFischi1;ListBlockFischi;44;1;2;0;2;5;Pr3_B;125;1;op;5;2;2;1;44;1;0;TrialProc;465;717;Pr3_B;244;1472;1716;ListFischi1;0;;2;203;377962;15;15;1503;379465;271;1;1503;1;1900;547;1232;1;1
TMS_Ibrahim;42;1;"<?xml version=""1.0""?>\n<Clock xmlns:dt=""urn:schemas-microsoft-com:datatypes""><Description dt:dt=""string"">E-Prime Primary Realtime Clock</Description><StartTime><Timestamp dt:dt=""int"">0</Timestamp><DateUtc dt:dt=""string"">2022-10-21T12:54:05Z</DateUtc></StartTime><FrequencyChanges><FrequencyChange><Frequency dt:dt=""r8"">3312880</Frequency><Timestamp dt:dt=""r8"">18711408497</Timestamp><Current dt:dt=""r8"">0</Current><DateUtc dt:dt=""string"">2022-10-21T12:54:05Z</DateUtc></FrequencyChange></FrequencyChanges></Clock>\n";TMS_Ibrahim-42-1;75029;100561;1;ve;1532181885;2010242;2010242;10/21/2022;21/10/2022 12:54;14:54:05;2010147;0;;-999999;46;60436;0;1;580;61016;1;1;1;2;1;1;1;BlockProcFischi;BlockList;1;125;0;;-999999;32;62783;0;1;1099;63882;1;1;1;1;ProcFischi1;ListBlockFischi;45;1;2;0;0;5;Pr2_B;150;1;op;5;2;6;1;45;1;0;TrialProc;1367;712;Pr2_B;36;1280;1245;ListFischi1;0;;2;201;385391;10;15;1306;386697;234;1;1306;1;333;260;1072;1;1
TMS_Ibrahim;42;1;"<?xml version=""1.0""?>\n<Clock xmlns:dt=""urn:schemas-microsoft-com:datatypes""><Description dt:dt=""string"">E-Prime Primary Realtime Clock</Description><StartTime><Timestamp dt:dt=""int"">0</Timestamp><DateUtc dt:dt=""string"">2022-10-21T12:54:05Z</DateUtc></StartTime><FrequencyChanges><FrequencyChange><Frequency dt:dt=""r8"">3312880</Frequency><Timestamp dt:dt=""r8"">18711408497</Timestamp><Current dt:dt=""r8"">0</Current><DateUtc dt:dt=""string"">2022-10-21T12:54:05Z</DateUtc></FrequencyChange></FrequencyChanges></Clock>\n";TMS_Ibrahim-42-1;75029;100561;1;ve;1532181885;2010242;2010242;10/21/2022;21/10/2022 12:54;14:54:05;2010147;0;;-999999;46;60436;0;1;580;61016;1;1;1;2;1;1;1;BlockProcFischi;BlockList;1;125;0;;-999999;32;62783;0;1;1099;63882;1;1;1;1;ProcFischi1;ListBlockFischi;46;0;1;1;1;5;Pomod_B;;4;ug;3;2;64;1;46;4;1;TrialProc;1355;1309;Pomod_B;175;1494;1669;ListFischi1;0;;2;203;392683;8;13;1517;394200;189;1;1517;1;329;427;1328;1;0
TMS_Ibrahim;42;1;"<?xml version=""1.0""?>\n<Clock xmlns:dt=""urn:schemas-microsoft-com:datatypes""><Description dt:dt=""string"">E-Prime Primary Realtime Clock</Description><StartTime><Timestamp dt:dt=""int"">0</Timestamp><DateUtc dt:dt=""string"">2022-10-21T12:54:05Z</DateUtc></StartTime><FrequencyChanges><FrequencyChange><Frequency dt:dt=""r8"">3312880</Frequency><Timestamp dt:dt=""r8"">18711408497</Timestamp><Current dt:dt=""r8"">0</Current><DateUtc dt:dt=""string"">2022-10-21T12:54:05Z</DateUtc></FrequencyChange></FrequencyChanges></Clock>\n";TMS_Ibrahim-42-1;75029;100561;1;ve;1532181885;2010242;2010242;10/21/2022;21/10/2022 12:54;14:54:05;2010147;0;;-999999;46;60436;0;1;580;61016;1;1;1;2;1;1;1;BlockProcFischi;BlockList;1;125;0;;-999999;32;62783;0;1;1099;63882;1;1;1;1;ProcFischi1;ListBlockFischi;47;1;1;0;1;5;Po2_B;100;4;ug;5;2;54;1;47;4;1;TrialProc;902;1573;Po2_B;189;1611;1800;ListFischi1;0;;2;201;400243;6;15;1637;401880;389;1;1637;1;78;571;1248;1;1
TMS_Ibrahim;42;1;"<?xml version=""1.0""?>\n<Clock xmlns:dt=""urn:schemas-microsoft-com:datatypes""><Description dt:dt=""string"">E-Prime Primary Realtime Clock</Description><StartTime><Timestamp dt:dt=""int"">0</Timestamp><DateUtc dt:dt=""string"">2022-10-21T12:54:05Z</DateUtc></StartTime><FrequencyChanges><FrequencyChange><Frequency dt:dt=""r8"">3312880</Frequency><Timestamp dt:dt=""r8"">18711408497</Timestamp><Current dt:dt=""r8"">0</Current><DateUtc dt:dt=""string"">2022-10-21T12:54:05Z</DateUtc></FrequencyChange></FrequencyChanges></Clock>\n";TMS_Ibrahim-42-1;75029;100561;1;ve;1532181885;2010242;2010242;10/21/2022;21/10/2022 12:54;14:54:05;2010147;0;;-999999;46;60436;0;1;580;61016;1;1;1;2;1;1;1;BlockProcFischi;BlockList;1;125;0;;-999999;32;62783;0;1;1099;63882;1;1;1;1;ProcFischi1;ListBlockFischi;48;1;1;0;0;3;Po2_B;150;2;op;3;2;43;1;48;2;0;TrialProc;760;1579;Po2_B;211;1595;1806;ListFischi1;0;;2;203;408074;11;13;1630;409704;238;1;1630;1;320;600;1392;1;1
TMS_Ibrahim;42;1;"<?xml version=""1.0""?>\n<Clock xmlns:dt=""urn:schemas-microsoft-com:datatypes""><Description dt:dt=""string"">E-Prime Primary Realtime Clock</Description><StartTime><Timestamp dt:dt=""int"">0</Timestamp><DateUtc dt:dt=""string"">2022-10-21T12:54:05Z</DateUtc></StartTime><FrequencyChanges><FrequencyChange><Frequency dt:dt=""r8"">3312880</Frequency><Timestamp dt:dt=""r8"">18711408497</Timestamp><Current dt:dt=""r8"">0</Current><DateUtc dt:dt=""string"">2022-10-21T12:54:05Z</DateUtc></FrequencyChange></FrequencyChanges></Clock>\n";TMS_Ibrahim-42-1;75029;100561;1;ve;1532181885;2010242;2010242;10/21/2022;21/10/2022 12:54;14:54:05;2010147;0;;-999999;46;60436;0;1;580;61016;1;1;1;2;1;1;1;BlockProcFischi;BlockList;1;125;0;;-999999;32;62783;0;1;1099;63882;1;1;1;1;ProcFischi1;ListBlockFischi;49;1;1;0;2;5;Po5_B;100;4;ug;5;2;52;1;49;4;1;TrialProc;658;981;Po5_B;22;1496;1475;ListFischi1;0;;3;201;415442;14;155;2517;417959;422;1;1525;1;223;454;1103;1;1
TMS_Ibrahim;42;1;"<?xml version=""1.0""?>\n<Clock xmlns:dt=""urn:schemas-microsoft-com:datatypes""><Description dt:dt=""string"">E-Prime Primary Realtime Clock</Description><StartTime><Timestamp dt:dt=""int"">0</Timestamp><DateUtc dt:dt=""string"">2022-10-21T12:54:05Z</DateUtc></StartTime><FrequencyChanges><FrequencyChange><Frequency dt:dt=""r8"">3312880</Frequency><Timestamp dt:dt=""r8"">18711408497</Timestamp><Current dt:dt=""r8"">0</Current><DateUtc dt:dt=""string"">2022-10-21T12:54:05Z</DateUtc></FrequencyChange></FrequencyChanges></Clock>\n";TMS_Ibrahim-42-1;75029;100561;1;ve;1532181885;2010242;2010242;10/21/2022;21/10/2022 12:54;14:54:05;2010147;0;;-999999;46;60436;0;1;580;61016;1;1;1;2;1;1;1;BlockProcFischi;BlockList;1;125;0;;-999999;32;62783;0;1;1099;63882;1;1;1;1;ProcFischi1;ListBlockFischi;50;1;2;0;0;3;Pr5_B;100;3;ug;3;2;30;1;50;3;1;TrialProc;1029;680;Pr5_B;60;1338;1278;ListFischi1;0;;2;203;422795;18;13;1372;424167;284;1;1372;1;509;537;1088;1;1
TMS_Ibrahim;42;1;"<?xml version=""1.0""?>\n<Clock xmlns:dt=""urn:schemas-microsoft-com:datatypes""><Description dt:dt=""string"">E-Prime Primary Realtime Clock</Description><StartTime><Timestamp dt:dt=""int"">0</Timestamp><DateUtc dt:dt=""string"">2022-10-21T12:54:05Z</DateUtc></StartTime><FrequencyChanges><FrequencyChange><Frequency dt:dt=""r8"">3312880</Frequency><Timestamp dt:dt=""r8"">18711408497</Timestamp><Current dt:dt=""r8"">0</Current><DateUtc dt:dt=""string"">2022-10-21T12:54:05Z</DateUtc></FrequencyChange></FrequencyChanges></Clock>\n";TMS_Ibrahim-42-1;75029;100561;1;ve;1532181885;2010242;2010242;10/21/2022;21/10/2022 12:54;14:54:05;2010147;0;;-999999;46;60436;0;1;580;61016;1;1;1;2;1;1;1;BlockProcFischi;BlockList;1;125;0;;-999999;32;62783;0;1;1099;63882;1;1;1;1;ProcFischi1;ListBlockFischi;51;1;1;0;1;3;Po3_B;150;2;op;3;2;34;1;51;2;0;TrialProc;850;1317;Po3_B;195;1779;1584;ListFischi1;0;;3;201;430073;17;13;1806;431879;78;1;1806;1;463;228;1728;1;1
TMS_Ibrahim;42;1;"<?xml version=""1.0""?>\n<Clock xmlns:dt=""urn:schemas-microsoft-com:datatypes""><Description dt:dt=""string"">E-Prime Primary Realtime Clock</Description><StartTime><Timestamp dt:dt=""int"">0</Timestamp><DateUtc dt:dt=""string"">2022-10-21T12:54:05Z</DateUtc></StartTime><FrequencyChanges><FrequencyChange><Frequency dt:dt=""r8"">3312880</Frequency><Timestamp dt:dt=""r8"">18711408497</Timestamp><Current dt:dt=""r8"">0</Current><DateUtc dt:dt=""string"">2022-10-21T12:54:05Z</DateUtc></FrequencyChange></FrequencyChanges></Clock>\n";TMS_Ibrahim-42-1;75029;100561;1;ve;1532181885;2010242;2010242;10/21/2022;21/10/2022 12:54;14:54:05;2010147;0;;-999999;46;60436;0;1;580;61016;1;1;1;2;1;1;1;BlockProcFischi;BlockList;1;125;0;;-999999;32;62783;0;1;1099;63882;1;1;1;1;ProcFischi1;ListBlockFischi;52;1;2;1;0;3;Prmod_B;75;3;ug;3;2;31;1;52;3;1;TrialProc;796;1318;Prmod_B;51;1601;1651;ListFischi1;0;;2;203;437283;17;13;1636;438919;36;1;1636;1;370;490;1600;1;1
TMS_Ibrahim;42;1;"<?xml version=""1.0""?>\n<Clock xmlns:dt=""urn:schemas-microsoft-com:datatypes""><Description dt:dt=""string"">E-Prime Primary Realtime Clock</Description><StartTime><Timestamp dt:dt=""int"">0</Timestamp><DateUtc dt:dt=""string"">2022-10-21T12:54:05Z</DateUtc></StartTime><FrequencyChanges><FrequencyChange><Frequency dt:dt=""r8"">3312880</Frequency><Timestamp dt:dt=""r8"">18711408497</Timestamp><Current dt:dt=""r8"">0</Current><DateUtc dt:dt=""string"">2022-10-21T12:54:05Z</DateUtc></FrequencyChange></FrequencyChanges></Clock>\n";TMS_Ibrahim-42-1;75029;100561;1;ve;1532181885;2010242;2010242;10/21/2022;21/10/2022 12:54;14:54:05;2010147;0;;-999999;46;60436;0;1;580;61016;1;1;1;2;1;1;1;BlockProcFischi;BlockList;1;125;0;;-999999;32;62783;0;1;1099;63882;1;1;1;1;ProcFischi1;ListBlockFischi;53;1;2;0;0;3;Pr3_B;75;3;ug;3;2;28;1;53;3;1;TrialProc;1144;717;Pr3_B;201;1515;1716;ListFischi1;0;;3;201;444694;17;13;1536;446230;160;1;1536;1;325;527;1376;1;1
TMS_Ibrahim;42;1;"<?xml version=""1.0""?>\n<Clock xmlns:dt=""urn:schemas-microsoft-com:datatypes""><Description dt:dt=""string"">E-Prime Primary Realtime Clock</Description><StartTime><Timestamp dt:dt=""int"">0</Timestamp><DateUtc dt:dt=""string"">2022-10-21T12:54:05Z</DateUtc></StartTime><FrequencyChanges><FrequencyChange><Frequency dt:dt=""r8"">3312880</Frequency><Timestamp dt:dt=""r8"">18711408497</Timestamp><Current dt:dt=""r8"">0</Current><DateUtc dt:dt=""string"">2022-10-21T12:54:05Z</DateUtc></FrequencyChange></FrequencyChanges></Clock>\n";TMS_Ibrahim-42-1;75029;100561;1;ve;1532181885;2010242;2010242;10/21/2022;21/10/2022 12:54;14:54:05;2010147;0;;-999999;46;60436;0;1;580;61016;1;1;1;2;1;1;1;BlockProcFischi;BlockList;1;125;0;;-999999;32;62783;0;1;1099;63882;1;1;1;1;ProcFischi1;ListBlockFischi;54;1;1;1;0;5;Pomod_B;75;4;ug;5;2;63;1;54;4;1;TrialProc;873;1308;Pomod_B;256;1924;1668;ListFischi1;0;;2;203;452420;8;15;1954;454374;210;1;1954;1;276;562;1744;1;1
TMS_Ibrahim;42;1;"<?xml version=""1.0""?>\n<Clock xmlns:dt=""urn:schemas-microsoft-com:datatypes""><Description dt:dt=""string"">E-Prime Primary Realtime Clock</Description><StartTime><Timestamp dt:dt=""int"">0</Timestamp><DateUtc dt:dt=""string"">2022-10-21T12:54:05Z</DateUtc></StartTime><FrequencyChanges><FrequencyChange><Frequency dt:dt=""r8"">3312880</Frequency><Timestamp dt:dt=""r8"">18711408497</Timestamp><Current dt:dt=""r8"">0</Current><DateUtc dt:dt=""string"">2022-10-21T12:54:05Z</DateUtc></FrequencyChange></FrequencyChanges></Clock>\n";TMS_Ibrahim-42-1;75029;100561;1;ve;1532181885;2010242;2010242;10/21/2022;21/10/2022 12:54;14:54:05;2010147;0;;-999999;46;60436;0;1;580;61016;1;1;1;2;1;1;1;BlockProcFischi;BlockList;1;125;0;;-999999;32;62783;0;1;1099;63882;1;1;1;1;ProcFischi1;ListBlockFischi;55;1;2;0;0;5;Pr2_B;125;1;op;5;2;11;1;55;1;0;TrialProc;1856;719;Pr2_B;230;1483;1253;ListFischi1;0;;2;201;459261;17;155;1913;461174;265;1;1513;1;635;377;1248;1;1
TMS_Ibrahim;42;1;"<?xml version=""1.0""?>\n<Clock xmlns:dt=""urn:schemas-microsoft-com:datatypes""><Description dt:dt=""string"">E-Prime Primary Realtime Clock</Description><StartTime><Timestamp dt:dt=""int"">0</Timestamp><DateUtc dt:dt=""string"">2022-10-21T12:54:05Z</DateUtc></StartTime><FrequencyChanges><FrequencyChange><Frequency dt:dt=""r8"">3312880</Frequency><Timestamp dt:dt=""r8"">18711408497</Timestamp><Current dt:dt=""r8"">0</Current><DateUtc dt:dt=""string"">2022-10-21T12:54:05Z</DateUtc></FrequencyChange></FrequencyChanges></Clock>\n";TMS_Ibrahim-42-1;75029;100561;1;ve;1532181885;2010242;2010242;10/21/2022;21/10/2022 12:54;14:54:05;2010147;0;;-999999;46;60436;0;1;580;61016;1;1;1;2;1;1;1;BlockProcFischi;BlockList;1;125;0;;-999999;32;62783;0;1;1099;63882;1;1;1;1;ProcFischi1;ListBlockFischi;56;1;1;0;2;3;Po3_B;150;2;op;3;2;39;1;56;2;0;TrialProc;663;1307;Po3_B;69;1505;1573;ListFischi1;0;;2;203;465882;7;133;2188;468070;204;1;1532;1;342;532;1328;1;1
TMS_Ibrahim;42;1;"<?xml version=""1.0""?>\n<Clock xmlns:dt=""urn:schemas-microsoft-com:datatypes""><Description dt:dt=""string"">E-Prime Primary Realtime Clock</Description><StartTime><Timestamp dt:dt=""int"">0</Timestamp><DateUtc dt:dt=""string"">2022-10-21T12:54:05Z</DateUtc></StartTime><FrequencyChanges><FrequencyChange><Frequency dt:dt=""r8"">3312880</Frequency><Timestamp dt:dt=""r8"">18711408497</Timestamp><Current dt:dt=""r8"">0</Current><DateUtc dt:dt=""string"">2022-10-21T12:54:05Z</DateUtc></FrequencyChange></FrequencyChanges></Clock>\n";TMS_Ibrahim-42-1;75029;100561;1;ve;1532181885;2010242;2010242;10/21/2022;21/10/2022 12:54;14:54:05;2010147;0;;-999999;46;60436;0;1;580;61016;1;1;1;2;1;1;1;BlockProcFischi;BlockList;1;125;0;;-999999;32;62783;0;1;1099;63882;1;1;1;1;ProcFischi1;ListBlockFischi;57;1;1;0;0;3;Po5_B;125;2;op;3;2;41;1;57;2;0;TrialProc;696;983;Po5_B;114;1362;1477;ListFischi1;0;;2;203;472778;15;133;2315;475093;219;1;1387;1;897;297;1168;1;1
TMS_Ibrahim;42;1;"<?xml version=""1.0""?>\n<Clock xmlns:dt=""urn:schemas-microsoft-com:datatypes""><Description dt:dt=""string"">E-Prime Primary Realtime Clock</Description><StartTime><Timestamp dt:dt=""int"">0</Timestamp><DateUtc dt:dt=""string"">2022-10-21T12:54:05Z</DateUtc></StartTime><FrequencyChanges><FrequencyChange><Frequency dt:dt=""r8"">3312880</Frequency><Timestamp dt:dt=""r8"">18711408497</Timestamp><Current dt:dt=""r8"">0</Current><DateUtc dt:dt=""string"">2022-10-21T12:54:05Z</DateUtc></FrequencyChange></FrequencyChanges></Clock>\n";TMS_Ibrahim-42-1;75029;100561;1;ve;1532181885;2010242;2010242;10/21/2022;21/10/2022 12:54;14:54:05;2010147;0;;-999999;46;60436;0;1;580;61016;1;1;1;2;1;1;1;BlockProcFischi;BlockList;1;125;0;;-999999;32;62783;0;1;1099;63882;1;1;1;1;ProcFischi1;ListBlockFischi;58;1;1;0;0;3;Po2_B;125;2;op;3;2;38;1;58;2;0;TrialProc;1012;1577;Po2_B;88;1717;1804;ListFischi1;0;;3;201;479419;11;13;1754;481173;202;1;1754;1;256;356;1552;1;1
TMS_Ibrahim;42;1;"<?xml version=""1.0""?>\n<Clock xmlns:dt=""urn:schemas-microsoft-com:datatypes""><Description dt:dt=""string"">E-Prime Primary Realtime Clock</Description><StartTime><Timestamp dt:dt=""int"">0</Timestamp><DateUtc dt:dt=""string"">2022-10-21T12:54:05Z</DateUtc></StartTime><FrequencyChanges><FrequencyChange><Frequency dt:dt=""r8"">3312880</Frequency><Timestamp dt:dt=""r8"">18711408497</Timestamp><Current dt:dt=""r8"">0</Current><DateUtc dt:dt=""string"">2022-10-21T12:54:05Z</DateUtc></FrequencyChange></FrequencyChanges></Clock>\n";TMS_Ibrahim-42-1;75029;100561;1;ve;1532181885;2010242;2010242;10/21/2022;21/10/2022 12:54;14:54:05;2010147;0;;-999999;46;60436;0;1;580;61016;1;1;1;2;1;1;1;BlockProcFischi;BlockList;1;125;0;;-999999;32;62783;0;1;1099;63882;1;1;1;1;ProcFischi1;ListBlockFischi;59;1;2;0;1;3;Pr5_B;75;3;ug;3;2;25;1;59;3;1;TrialProc;779;681;Pr5_B;253;1533;1281;ListFischi1;0;;2;203;487062;19;13;1567;488629;127;1;1567;1;749;437;1440;1;1
TMS_Ibrahim;42;1;"<?xml version=""1.0""?>\n<Clock xmlns:dt=""urn:schemas-microsoft-com:datatypes""><Description dt:dt=""string"">E-Prime Primary Realtime Clock</Description><StartTime><Timestamp dt:dt=""int"">0</Timestamp><DateUtc dt:dt=""string"">2022-10-21T12:54:05Z</DateUtc></StartTime><FrequencyChanges><FrequencyChange><Frequency dt:dt=""r8"">3312880</Frequency><Timestamp dt:dt=""r8"">18711408497</Timestamp><Current dt:dt=""r8"">0</Current><DateUtc dt:dt=""string"">2022-10-21T12:54:05Z</DateUtc></FrequencyChange></FrequencyChanges></Clock>\n";TMS_Ibrahim-42-1;75029;100561;1;ve;1532181885;2010242;2010242;10/21/2022;21/10/2022 12:54;14:54:05;2010147;0;;-999999;46;60436;0;1;580;61016;1;1;1;2;1;1;1;BlockProcFischi;BlockList;1;125;0;;-999999;32;62783;0;1;1099;63882;1;1;1;1;ProcFischi1;ListBlockFischi;60;1;1;0;1;5;Po8_B;75;4;ug;5;2;58;1;60;4;1;TrialProc;1055;1247;Po8_B;99;1678;1580;ListFischi1;0;;2;201;494265;13;15;1708;495973;348;1;1708;1;210;490;1360;1;1
TMS_Ibrahim;42;1;"<?xml version=""1.0""?>\n<Clock xmlns:dt=""urn:schemas-microsoft-com:datatypes""><Description dt:dt=""string"">E-Prime Primary Realtime Clock</Description><StartTime><Timestamp dt:dt=""int"">0</Timestamp><DateUtc dt:dt=""string"">2022-10-21T12:54:05Z</DateUtc></StartTime><FrequencyChanges><FrequencyChange><Frequency dt:dt=""r8"">3312880</Frequency><Timestamp dt:dt=""r8"">18711408497</Timestamp><Current dt:dt=""r8"">0</Current><DateUtc dt:dt=""string"">2022-10-21T12:54:05Z</DateUtc></FrequencyChange></FrequencyChanges></Clock>\n";TMS_Ibrahim-42-1;75029;100561;1;ve;1532181885;2010242;2010242;10/21/2022;21/10/2022 12:54;14:54:05;2010147;0;;-999999;46;60436;0;1;580;61016;1;1;1;2;1;1;1;BlockProcFischi;BlockList;1;125;0;;-999999;32;62783;0;1;1099;63882;1;1;1;1;ProcFischi1;ListBlockFischi;61;1;1;0;0;3;Po4_B;100;2;op;3;2;45;1;61;2;0;TrialProc;935;1346;Po4_B;289;1431;1719;ListFischi1;0;;2;203;501630;18;13;1462;503092;487;1;1462;1;343;408;975;1;1
TMS_Ibrahim;42;1;"<?xml version=""1.0""?>\n<Clock xmlns:dt=""urn:schemas-microsoft-com:datatypes""><Description dt:dt=""string"">E-Prime Primary Realtime Clock</Description><StartTime><Timestamp dt:dt=""int"">0</Timestamp><DateUtc dt:dt=""string"">2022-10-21T12:54:05Z</DateUtc></StartTime><FrequencyChanges><FrequencyChange><Frequency dt:dt=""r8"">3312880</Frequency><Timestamp dt:dt=""r8"">18711408497</Timestamp><Current dt:dt=""r8"">0</Current><DateUtc dt:dt=""string"">2022-10-21T12:54:05Z</DateUtc></FrequencyChange></FrequencyChanges></Clock>\n";TMS_Ibrahim-42-1;75029;100561;1;ve;1532181885;2010242;2010242;10/21/2022;21/10/2022 12:54;14:54:05;2010147;0;;-999999;46;60436;0;1;580;61016;1;1;1;2;1;1;1;BlockProcFischi;BlockList;1;125;0;;-999999;32;62783;0;1;1099;63882;1;1;1;1;ProcFischi1;ListBlockFischi;62;1;2;0;2;3;Pr2_B;75;3;ug;3;2;22;1;62;3;1;TrialProc;2391;715;Pr2_B;112;1361;1248;ListFischi1;0;;3;201;509351;14;13;1389;510740;429;1;1389;1;374;258;960;1;1
TMS_Ibrahim;42;1;"<?xml version=""1.0""?>\n<Clock xmlns:dt=""urn:schemas-microsoft-com:datatypes""><Description dt:dt=""string"">E-Prime Primary Realtime Clock</Description><StartTime><Timestamp dt:dt=""int"">0</Timestamp><DateUtc dt:dt=""string"">2022-10-21T12:54:05Z</DateUtc></StartTime><FrequencyChanges><FrequencyChange><Frequency dt:dt=""r8"">3312880</Frequency><Timestamp dt:dt=""r8"">18711408497</Timestamp><Current dt:dt=""r8"">0</Current><DateUtc dt:dt=""string"">2022-10-21T12:54:05Z</DateUtc></FrequencyChange></FrequencyChanges></Clock>\n";TMS_Ibrahim-42-1;75029;100561;1;ve;1532181885;2010242;2010242;10/21/2022;21/10/2022 12:54;14:54:05;2010147;0;;-999999;46;60436;0;1;580;61016;1;1;1;2;1;1;1;BlockProcFischi;BlockList;1;125;0;;-999999;32;62783;0;1;1099;63882;1;1;1;1;ProcFischi1;ListBlockFischi;63;1;2;0;0;3;Pr2_B;100;3;ug;3;2;17;1;63;3;1;TrialProc;1012;715;Pr2_B;4;1253;1248;ListFischi1;0;;2;203;516734;15;13;1286;518020;166;1;1286;1;348;226;1120;1;1
TMS_Ibrahim;42;1;"<?xml version=""1.0""?>\n<Clock xmlns:dt=""urn:schemas-microsoft-com:datatypes""><Description dt:dt=""string"">E-Prime Primary Realtime Clock</Description><StartTime><Timestamp dt:dt=""int"">0</Timestamp><DateUtc dt:dt=""string"">2022-10-21T12:54:05Z</DateUtc></StartTime><FrequencyChanges><FrequencyChange><Frequency dt:dt=""r8"">3312880</Frequency><Timestamp dt:dt=""r8"">18711408497</Timestamp><Current dt:dt=""r8"">0</Current><DateUtc dt:dt=""string"">2022-10-21T12:54:05Z</DateUtc></FrequencyChange></FrequencyChanges></Clock>\n";TMS_Ibrahim-42-1;75029;100561;1;ve;1532181885;2010242;2010242;10/21/2022;21/10/2022 12:54;14:54:05;2010147;0;;-999999;46;60436;0;1;580;61016;1;1;1;2;1;1;1;BlockProcFischi;BlockList;1;125;0;;-999999;32;62783;0;1;1099;63882;1;1;1;1;ProcFischi1;ListBlockFischi;64;0;1;1;1;3;Pomod_B;;2;op;5;2;47;1;64;2;0;TrialProc;3136;1313;Pomod_B;210;1462;1672;ListFischi1;0;;3;201;523919;14;15;1493;525412;245;1;1493;1;417;569;1248;1;0
TMS_Ibrahim;42;3;"<?xml version=""1.0""?>\n<Clock xmlns:dt=""urn:schemas-microsoft-com:datatypes""><Description dt:dt=""string"">E-Prime Primary Realtime Clock</Description><StartTime><Timestamp dt:dt=""int"">0</Timestamp><DateUtc dt:dt=""string"">2022-10-21T13:58:52Z</DateUtc></StartTime><FrequencyChanges><FrequencyChange><Frequency dt:dt=""r8"">3312880</Frequency><Timestamp dt:dt=""r8"">31589202387</Timestamp><Current dt:dt=""r8"">0</Current><DateUtc dt:dt=""string"">2022-10-21T13:58:52Z</DateUtc></FrequencyChange></FrequencyChanges></Clock>\n";TMS_Ibrahim-42-3;7503;100561;1;;1525060434;2010242;2010242;10/21/2022;21/10/2022 13:58;15:58:53;2010147;0;;-999999;46;54562;0;1;1011;55573;1;1;1;2;1;1;1;BlockProcFischi;BlockList;1;100;0;;-999999;32;57229;0;1;773;58002;1;1;1;1;ProcFischi1;ListBlockFischi;1;1;1;0;0;3;Po3_B;250;2;op;3;2;39;1;1;2;0;TrialProc;1372;1341;Po3_B;111;1496;1607;ListFischi1;0;;5;210;60930;29;133;2516;63446;452;1;1524;1;607;507;1072;1;1
TMS_Ibrahim;42;3;"<?xml version=""1.0""?>\n<Clock xmlns:dt=""urn:schemas-microsoft-com:datatypes""><Description dt:dt=""string"">E-Prime Primary Realtime Clock</Description><StartTime><Timestamp dt:dt=""int"">0</Timestamp><DateUtc dt:dt=""string"">2022-10-21T13:58:52Z</DateUtc></StartTime><FrequencyChanges><FrequencyChange><Frequency dt:dt=""r8"">3312880</Frequency><Timestamp dt:dt=""r8"">31589202387</Timestamp><Current dt:dt=""r8"">0</Current><DateUtc dt:dt=""string"">2022-10-21T13:58:52Z</DateUtc></FrequencyChange></FrequencyChanges></Clock>\n";TMS_Ibrahim-42-3;7503;100561;1;;1525060434;2010242;2010242;10/21/2022;21/10/2022 13:58;15:58:53;2010147;0;;-999999;46;54562;0;1;1011;55573;1;1;1;2;1;1;1;BlockProcFischi;BlockList;1;100;0;;-999999;32;57229;0;1;773;58002;1;1;1;1;ProcFischi1;ListBlockFischi;2;1;2;0;0;5;Pr2_B;250;1;op;5;2;11;1;2;1;0;TrialProc;3742;720;Pr2_B;61;1192;1254;ListFischi1;0;;1;201;67832;18;15;1213;69045;189;1;1213;1;687;595;1024;1;1
TMS_Ibrahim;42;3;"<?xml version=""1.0""?>\n<Clock xmlns:dt=""urn:schemas-microsoft-com:datatypes""><Description dt:dt=""string"">E-Prime Primary Realtime Clock</Description><StartTime><Timestamp dt:dt=""int"">0</Timestamp><DateUtc dt:dt=""string"">2022-10-21T13:58:52Z</DateUtc></StartTime><FrequencyChanges><FrequencyChange><Frequency dt:dt=""r8"">3312880</Frequency><Timestamp dt:dt=""r8"">31589202387</Timestamp><Current dt:dt=""r8"">0</Current><DateUtc dt:dt=""string"">2022-10-21T13:58:52Z</DateUtc></FrequencyChange></FrequencyChanges></Clock>\n";TMS_Ibrahim-42-3;7503;100561;1;;1525060434;2010242;2010242;10/21/2022;21/10/2022 13:58;15:58:53;2010147;0;;-999999;46;54562;0;1;1011;55573;1;1;1;2;1;1;1;BlockProcFischi;BlockList;1;100;0;;-999999;32;57229;0;1;773;58002;1;1;1;1;ProcFischi1;ListBlockFischi;3;1;2;0;0;3;Pr3_B;250;3;ug;3;2;28;1;3;3;1;TrialProc;2453;718;Pr3_B;243;1476;1718;ListFischi1;0;;1;203;76111;15;13;1510;77621;166;1;1510;1;469;244;1344;1;1
TMS_Ibrahim;42;3;"<?xml version=""1.0""?>\n<Clock xmlns:dt=""urn:schemas-microsoft-com:datatypes""><Description dt:dt=""string"">E-Prime Primary Realtime Clock</Description><StartTime><Timestamp dt:dt=""int"">0</Timestamp><DateUtc dt:dt=""string"">2022-10-21T13:58:52Z</DateUtc></StartTime><FrequencyChanges><FrequencyChange><Frequency dt:dt=""r8"">3312880</Frequency><Timestamp dt:dt=""r8"">31589202387</Timestamp><Current dt:dt=""r8"">0</Current><DateUtc dt:dt=""string"">2022-10-21T13:58:52Z</DateUtc></FrequencyChange></FrequencyChanges></Clock>\n";TMS_Ibrahim-42-3;7503;100561;1;;1525060434;2010242;2010242;10/21/2022;21/10/2022 13:58;15:58:53;2010147;0;;-999999;46;54562;0;1;1011;55573;1;1;1;2;1;1;1;BlockProcFischi;BlockList;1;100;0;;-999999;32;57229;0;1;773;58002;1;1;1;1;ProcFischi1;ListBlockFischi;4;1;1;0;0;3;Po5_B;225;2;op;3;2;46;1;4;2;0;TrialProc;2845;986;Po5_B;81;1397;1479;ListFischi1;0;;2;203;84039;18;133;2014;86053;254;1;1422;1;775;347;1168;1;1
TMS_Ibrahim;42;3;"<?xml version=""1.0""?>\n<Clock xmlns:dt=""urn:schemas-microsoft-com:datatypes""><Description dt:dt=""string"">E-Prime Primary Realtime Clock</Description><StartTime><Timestamp dt:dt=""int"">0</Timestamp><DateUtc dt:dt=""string"">2022-10-21T13:58:52Z</DateUtc></StartTime><FrequencyChanges><FrequencyChange><Frequency dt:dt=""r8"">3312880</Frequency><Timestamp dt:dt=""r8"">31589202387</Timestamp><Current dt:dt=""r8"">0</Current><DateUtc dt:dt=""string"">2022-10-21T13:58:52Z</DateUtc></FrequencyChange></FrequencyChanges></Clock>\n";TMS_Ibrahim-42-3;7503;100561;1;;1525060434;2010242;2010242;10/21/2022;21/10/2022 13:58;15:58:53;2010147;0;;-999999;46;54562;0;1;1011;55573;1;1;1;2;1;1;1;BlockProcFischi;BlockList;1;100;0;;-999999;32;57229;0;1;773;58002;1;1;1;1;ProcFischi1;ListBlockFischi;5;1;2;0;0;5;Pr2_B;225;1;op;5;2;1;1;5;1;0;TrialProc;3428;715;Pr2_B;198;1446;1247;ListFischi1;0;;2;203;92014;13;15;1479;93493;279;1;1479;1;846;385;1200;1;1
TMS_Ibrahim;42;3;"<?xml version=""1.0""?>\n<Clock xmlns:dt=""urn:schemas-microsoft-com:datatypes""><Description dt:dt=""string"">E-Prime Primary Realtime Clock</Description><StartTime><Timestamp dt:dt=""int"">0</Timestamp><DateUtc dt:dt=""string"">2022-10-21T13:58:52Z</DateUtc></StartTime><FrequencyChanges><FrequencyChange><Frequency dt:dt=""r8"">3312880</Frequency><Timestamp dt:dt=""r8"">31589202387</Timestamp><Current dt:dt=""r8"">0</Current><DateUtc dt:dt=""string"">2022-10-21T13:58:52Z</DateUtc></FrequencyChange></FrequencyChanges></Clock>\n";TMS_Ibrahim-42-3;7503;100561;1;;1525060434;2010242;2010242;10/21/2022;21/10/2022 13:58;15:58:53;2010147;0;;-999999;46;54562;0;1;1011;55573;1;1;1;2;1;1;1;BlockProcFischi;BlockList;1;100;0;;-999999;32;57229;0;1;773;58002;1;1;1;1;ProcFischi1;ListBlockFischi;6;1;2;0;0;3;Pr3_B;250;3;ug;3;2;23;1;6;3;1;TrialProc;3816;712;Pr3_B;130;1582;1712;ListFischi1;0;;2;203;99879;11;13;1613;101492;221;1;1613;1;854;278;1392;1;1
TMS_Ibrahim;42;3;"<?xml version=""1.0""?>\n<Clock xmlns:dt=""urn:schemas-microsoft-com:datatypes""><Description dt:dt=""string"">E-Prime Primary Realtime Clock</Description><StartTime><Timestamp dt:dt=""int"">0</Timestamp><DateUtc dt:dt=""string"">2022-10-21T13:58:52Z</DateUtc></StartTime><FrequencyChanges><FrequencyChange><Frequency dt:dt=""r8"">3312880</Frequency><Timestamp dt:dt=""r8"">31589202387</Timestamp><Current dt:dt=""r8"">0</Current><DateUtc dt:dt=""string"">2022-10-21T13:58:52Z</DateUtc></FrequencyChange></FrequencyChanges></Clock>\n";TMS_Ibrahim-42-3;7503;100561;1;;1525060434;2010242;2010242;10/21/2022;21/10/2022 13:58;15:58:53;2010147;0;;-999999;46;54562;0;1;1011;55573;1;1;1;2;1;1;1;BlockProcFischi;BlockList;1;100;0;;-999999;32;57229;0;1;773;58002;1;1;1;1;ProcFischi1;ListBlockFischi;7;0;1;1;0;5;Pomod_B;;4;ug;3;2;63;1;7;4;1;TrialProc;3903;1313;Pomod_B;77;1596;1673;ListFischi1;0;;2;203;108354;13;13;1618;109972;210;1;1618;1;724;394;1408;1;0
TMS_Ibrahim;42;3;"<?xml version=""1.0""?>\n<Clock xmlns:dt=""urn:schemas-microsoft-com:datatypes""><Description dt:dt=""string"">E-Prime Primary Realtime Clock</Description><StartTime><Timestamp dt:dt=""int"">0</Timestamp><DateUtc dt:dt=""string"">2022-10-21T13:58:52Z</DateUtc></StartTime><FrequencyChanges><FrequencyChange><Frequency dt:dt=""r8"">3312880</Frequency><Timestamp dt:dt=""r8"">31589202387</Timestamp><Current dt:dt=""r8"">0</Current><DateUtc dt:dt=""string"">2022-10-21T13:58:52Z</DateUtc></FrequencyChange></FrequencyChanges></Clock>\n";TMS_Ibrahim-42-3;7503;100561;1;;1525060434;2010242;2010242;10/21/2022;21/10/2022 13:58;15:58:53;2010147;0;;-999999;46;54562;0;1;1011;55573;1;1;1;2;1;1;1;BlockProcFischi;BlockList;1;100;0;;-999999;32;57229;0;1;773;58002;1;1;1;1;ProcFischi1;ListBlockFischi;8;1;2;1;0;5;Prmod_B;200;1;op;5;2;16;1;8;1;0;TrialProc;2349;1317;Prmod_B;368;2019;1651;ListFischi1;0;;2;203;118027;16;155;2825;120852;265;1;2041;1;1130;514;1776;1;1
TMS_Ibrahim;42;3;"<?xml version=""1.0""?>\n<Clock xmlns:dt=""urn:schemas-microsoft-com:datatypes""><Description dt:dt=""string"">E-Prime Primary Realtime Clock</Description><StartTime><Timestamp dt:dt=""int"">0</Timestamp><DateUtc dt:dt=""string"">2022-10-21T13:58:52Z</DateUtc></StartTime><FrequencyChanges><FrequencyChange><Frequency dt:dt=""r8"">3312880</Frequency><Timestamp dt:dt=""r8"">31589202387</Timestamp><Current dt:dt=""r8"">0</Current><DateUtc dt:dt=""string"">2022-10-21T13:58:52Z</DateUtc></FrequencyChange></FrequencyChanges></Clock>\n";TMS_Ibrahim-42-3;7503;100561;1;;1525060434;2010242;2010242;10/21/2022;21/10/2022 13:58;15:58:53;2010147;0;;-999999;46;54562;0;1;1011;55573;1;1;1;2;1;1;1;BlockProcFischi;BlockList;1;100;0;;-999999;32;57229;0;1;773;58002;1;1;1;1;ProcFischi1;ListBlockFischi;9;1;2;0;0;3;Pr4_B;225;3;ug;3;2;24;1;9;3;1;TrialProc;2674;677;Pr4_B;181;1432;1251;ListFischi1;0;;2;203;126117;16;13;1454;127571;319;1;1454;1;802;456;1135;1;1
TMS_Ibrahim;42;3;"<?xml version=""1.0""?>\n<Clock xmlns:dt=""urn:schemas-microsoft-com:datatypes""><Description dt:dt=""string"">E-Prime Primary Realtime Clock</Description><StartTime><Timestamp dt:dt=""int"">0</Timestamp><DateUtc dt:dt=""string"">2022-10-21T13:58:52Z</DateUtc></StartTime><FrequencyChanges><FrequencyChange><Frequency dt:dt=""r8"">3312880</Frequency><Timestamp dt:dt=""r8"">31589202387</Timestamp><Current dt:dt=""r8"">0</Current><DateUtc dt:dt=""string"">2022-10-21T13:58:52Z</DateUtc></FrequencyChange></FrequencyChanges></Clock>\n";TMS_Ibrahim-42-3;7503;100561;1;;1525060434;2010242;2010242;10/21/2022;21/10/2022 13:58;15:58:53;2010147;0;;-999999;46;54562;0;1;1011;55573;1;1;1;2;1;1;1;BlockProcFischi;BlockList;1;100;0;;-999999;32;57229;0;1;773;58002;1;1;1;1;ProcFischi1;ListBlockFischi;10;1;1;0;0;3;Po8_B;200;2;op;3;2;37;1;10;2;0;TrialProc;2768;1248;Po8_B;97;1678;1581;ListFischi1;0;;2;203;134197;13;13;1710;135907;222;1;1710;1;924;340;1488;1;1
TMS_Ibrahim;42;3;"<?xml version=""1.0""?>\n<Clock xmlns:dt=""urn:schemas-microsoft-com:datatypes""><Description dt:dt=""string"">E-Prime Primary Realtime Clock</Description><StartTime><Timestamp dt:dt=""int"">0</Timestamp><DateUtc dt:dt=""string"">2022-10-21T13:58:52Z</DateUtc></StartTime><FrequencyChanges><FrequencyChange><Frequency dt:dt=""r8"">3312880</Frequency><Timestamp dt:dt=""r8"">31589202387</Timestamp><Current dt:dt=""r8"">0</Current><DateUtc dt:dt=""string"">2022-10-21T13:58:52Z</DateUtc></FrequencyChange></FrequencyChanges></Clock>\n";TMS_Ibrahim-42-3;7503;100561;1;;1525060434;2010242;2010242;10/21/2022;21/10/2022 13:58;15:58:53;2010147;0;;-999999;46;54562;0;1;1011;55573;1;1;1;2;1;1;1;BlockProcFischi;BlockList;1;100;0;;-999999;32;57229;0;1;773;58002;1;1;1;1;ProcFischi1;ListBlockFischi;11;1;1;0;0;3;Po2_B;175;2;op;3;2;33;1;11;2;0;TrialProc;2681;1581;Po2_B;13;1820;1808;ListFischi1;0;;2;203;142354;13;133;2417;144771;225;1;1841;1;760;380;1616;1;1
TMS_Ibrahim;42;3;"<?xml version=""1.0""?>\n<Clock xmlns:dt=""urn:schemas-microsoft-com:datatypes""><Description dt:dt=""string"">E-Prime Primary Realtime Clock</Description><StartTime><Timestamp dt:dt=""int"">0</Timestamp><DateUtc dt:dt=""string"">2022-10-21T13:58:52Z</DateUtc></StartTime><FrequencyChanges><FrequencyChange><Frequency dt:dt=""r8"">3312880</Frequency><Timestamp dt:dt=""r8"">31589202387</Timestamp><Current dt:dt=""r8"">0</Current><DateUtc dt:dt=""string"">2022-10-21T13:58:52Z</DateUtc></FrequencyChange></FrequencyChanges></Clock>\n";TMS_Ibrahim-42-3;7503;100561;1;;1525060434;2010242;2010242;10/21/2022;21/10/2022 13:58;15:58:53;2010147;0;;-999999;46;54562;0;1;1011;55573;1;1;1;2;1;1;1;BlockProcFischi;BlockList;1;100;0;;-999999;32;57229;0;1;773;58002;1;1;1;1;ProcFischi1;ListBlockFischi;12;1;1;1;0;3;Pomod_B;150;2;op;3;2;47;1;12;2;0;TrialProc;2107;1313;Pomod_B;543;2217;1674;ListFischi1;0;;2;203;150592;12;13;2242;152834;275;1;2242;1;1037;567;1967;1;1
TMS_Ibrahim;42;3;"<?xml version=""1.0""?>\n<Clock xmlns:dt=""urn:schemas-microsoft-com:datatypes""><Description dt:dt=""string"">E-Prime Primary Realtime Clock</Description><StartTime><Timestamp dt:dt=""int"">0</Timestamp><DateUtc dt:dt=""string"">2022-10-21T13:58:52Z</DateUtc></StartTime><FrequencyChanges><FrequencyChange><Frequency dt:dt=""r8"">3312880</Frequency><Timestamp dt:dt=""r8"">31589202387</Timestamp><Current dt:dt=""r8"">0</Current><DateUtc dt:dt=""string"">2022-10-21T13:58:52Z</DateUtc></FrequencyChange></FrequencyChanges></Clock>\n";TMS_Ibrahim-42-3;7503;100561;1;;1525060434;2010242;2010242;10/21/2022;21/10/2022 13:58;15:58:53;2010147;0;;-999999;46;54562;0;1;1011;55573;1;1;1;2;1;1;1;BlockProcFischi;BlockList;1;100;0;;-999999;32;57229;0;1;773;58002;1;1;1;1;ProcFischi1;ListBlockFischi;13;1;1;0;0;5;Po4_B;250;4;ug;5;2;51;1;13;4;1;TrialProc;2806;1350;Po4_B;97;1612;1708;ListFischi1;0;;2;201;158193;8;15;1633;159826;257;1;1633;1;817;363;1376;1;1
TMS_Ibrahim;42;3;"<?xml version=""1.0""?>\n<Clock xmlns:dt=""urn:schemas-microsoft-com:datatypes""><Description dt:dt=""string"">E-Prime Primary Realtime Clock</Description><StartTime><Timestamp dt:dt=""int"">0</Timestamp><DateUtc dt:dt=""string"">2022-10-21T13:58:52Z</DateUtc></StartTime><FrequencyChanges><FrequencyChange><Frequency dt:dt=""r8"">3312880</Frequency><Timestamp dt:dt=""r8"">31589202387</Timestamp><Current dt:dt=""r8"">0</Current><DateUtc dt:dt=""string"">2022-10-21T13:58:52Z</DateUtc></FrequencyChange></FrequencyChanges></Clock>\n";TMS_Ibrahim-42-3;7503;100561;1;;1525060434;2010242;2010242;10/21/2022;21/10/2022 13:58;15:58:53;2010147;0;;-999999;46;54562;0;1;1011;55573;1;1;1;2;1;1;1;BlockProcFischi;BlockList;1;100;0;;-999999;32;57229;0;1;773;58002;1;1;1;1;ProcFischi1;ListBlockFischi;14;1;2;0;0;3;Pr4_B;200;3;ug;3;2;29;1;14;3;1;TrialProc;2187;674;Pr4_B;218;1466;1248;ListFischi1;0;;2;203;166891;13;133;1687;168578;247;1;1495;1;1255;597;1248;1;1
TMS_Ibrahim;42;3;"<?xml version=""1.0""?>\n<Clock xmlns:dt=""urn:schemas-microsoft-com:datatypes""><Description dt:dt=""string"">E-Prime Primary Realtime Clock</Description><StartTime><Timestamp dt:dt=""int"">0</Timestamp><DateUtc dt:dt=""string"">2022-10-21T13:58:52Z</DateUtc></StartTime><FrequencyChanges><FrequencyChange><Frequency dt:dt=""r8"">3312880</Frequency><Timestamp dt:dt=""r8"">31589202387</Timestamp><Current dt:dt=""r8"">0</Current><DateUtc dt:dt=""string"">2022-10-21T13:58:52Z</DateUtc></FrequencyChange></FrequencyChanges></Clock>\n";TMS_Ibrahim-42-3;7503;100561;1;;1525060434;2010242;2010242;10/21/2022;21/10/2022 13:58;15:58:53;2010147;0;;-999999;46;54562;0;1;1011;55573;1;1;1;2;1;1;1;BlockProcFischi;BlockList;1;100;0;;-999999;32;57229;0;1;773;58002;1;1;1;1;ProcFischi1;ListBlockFischi;15;1;2;0;1;5;Pr3_B;200;1;op;5;2;2;1;15;1;0;TrialProc;2548;711;Pr3_B;16;1695;1710;ListFischi1;0;;2;203;174985;9;15;1721;176706;185;1;1721;1;1071;282;1536;1;1
TMS_Ibrahim;42;3;"<?xml version=""1.0""?>\n<Clock xmlns:dt=""urn:schemas-microsoft-com:datatypes""><Description dt:dt=""string"">E-Prime Primary Realtime Clock</Description><StartTime><Timestamp dt:dt=""int"">0</Timestamp><DateUtc dt:dt=""string"">2022-10-21T13:58:52Z</DateUtc></StartTime><FrequencyChanges><FrequencyChange><Frequency dt:dt=""r8"">3312880</Frequency><Timestamp dt:dt=""r8"">31589202387</Timestamp><Current dt:dt=""r8"">0</Current><DateUtc dt:dt=""string"">2022-10-21T13:58:52Z</DateUtc></FrequencyChange></FrequencyChanges></Clock>\n";TMS_Ibrahim-42-3;7503;100561;1;;1525060434;2010242;2010242;10/21/2022;21/10/2022 13:58;15:58:53;2010147;0;;-999999;46;54562;0;1;1011;55573;1;1;1;2;1;1;1;BlockProcFischi;BlockList;1;100;0;;-999999;32;57229;0;1;773;58002;1;1;1;1;ProcFischi1;ListBlockFischi;16;1;2;0;0;3;Pr2_B;200;3;ug;3;2;27;1;16;3;1;TrialProc;2441;720;Pr2_B;236;1489;1252;ListFischi1;0;;2;203;183119;19;13;1522;184641;354;1;1522;1;1279;336;1168;1;1
TMS_Ibrahim;42;3;"<?xml version=""1.0""?>\n<Clock xmlns:dt=""urn:schemas-microsoft-com:datatypes""><Description dt:dt=""string"">E-Prime Primary Realtime Clock</Description><StartTime><Timestamp dt:dt=""int"">0</Timestamp><DateUtc dt:dt=""string"">2022-10-21T13:58:52Z</DateUtc></StartTime><FrequencyChanges><FrequencyChange><Frequency dt:dt=""r8"">3312880</Frequency><Timestamp dt:dt=""r8"">31589202387</Timestamp><Current dt:dt=""r8"">0</Current><DateUtc dt:dt=""string"">2022-10-21T13:58:52Z</DateUtc></FrequencyChange></FrequencyChanges></Clock>\n";TMS_Ibrahim-42-3;7503;100561;1;;1525060434;2010242;2010242;10/21/2022;21/10/2022 13:58;15:58:53;2010147;0;;-999999;46;54562;0;1;1011;55573;1;1;1;2;1;1;1;BlockProcFischi;BlockList;1;100;0;;-999999;32;57229;0;1;773;58002;1;1;1;1;ProcFischi1;ListBlockFischi;17;1;1;0;1;3;Po8_B;150;2;op;3;2;42;1;17;2;0;TrialProc;3175;1246;Po8_B;129;1449;1578;ListFischi1;0;;2;203;191418;10;133;3063;194481;247;1;1479;1;1500;212;1232;1;1
TMS_Ibrahim;42;3;"<?xml version=""1.0""?>\n<Clock xmlns:dt=""urn:schemas-microsoft-com:datatypes""><Description dt:dt=""string"">E-Prime Primary Realtime Clock</Description><StartTime><Timestamp dt:dt=""int"">0</Timestamp><DateUtc dt:dt=""string"">2022-10-21T13:58:52Z</DateUtc></StartTime><FrequencyChanges><FrequencyChange><Frequency dt:dt=""r8"">3312880</Frequency><Timestamp dt:dt=""r8"">31589202387</Timestamp><Current dt:dt=""r8"">0</Current><DateUtc dt:dt=""string"">2022-10-21T13:58:52Z</DateUtc></FrequencyChange></FrequencyChanges></Clock>\n";TMS_Ibrahim-42-3;7503;100561;1;;1525060434;2010242;2010242;10/21/2022;21/10/2022 13:58;15:58:53;2010147;0;;-999999;46;54562;0;1;1011;55573;1;1;1;2;1;1;1;BlockProcFischi;BlockList;1;100;0;;-999999;32;57229;0;1;773;58002;1;1;1;1;ProcFischi1;ListBlockFischi;18;1;2;0;0;5;Pr4_B;175;1;op;5;2;8;1;18;1;0;TrialProc;2457;667;Pr4_B;231;1471;1239;ListFischi1;0;;2;203;200365;6;15;1508;201873;180;1;1508;1;1166;417;1328;1;1
TMS_Ibrahim;42;3;"<?xml version=""1.0""?>\n<Clock xmlns:dt=""urn:schemas-microsoft-com:datatypes""><Description dt:dt=""string"">E-Prime Primary Realtime Clock</Description><StartTime><Timestamp dt:dt=""int"">0</Timestamp><DateUtc dt:dt=""string"">2022-10-21T13:58:52Z</DateUtc></StartTime><FrequencyChanges><FrequencyChange><Frequency dt:dt=""r8"">3312880</Frequency><Timestamp dt:dt=""r8"">31589202387</Timestamp><Current dt:dt=""r8"">0</Current><DateUtc dt:dt=""string"">2022-10-21T13:58:52Z</DateUtc></FrequencyChange></FrequencyChanges></Clock>\n";TMS_Ibrahim-42-3;7503;100561;1;;1525060434;2010242;2010242;10/21/2022;21/10/2022 13:58;15:58:53;2010147;0;;-999999;46;54562;0;1;1011;55573;1;1;1;2;1;1;1;BlockProcFischi;BlockList;1;100;0;;-999999;32;57229;0;1;773;58002;1;1;1;1;ProcFischi1;ListBlockFischi;19;1;1;1;1;3;Pomod_B;150;2;op;3;2;48;1;19;2;0;TrialProc;1925;1313;Pomod_B;614;2286;1673;ListFischi1;0;;2;201;207875;13;13;2317;210192;222;1;2317;1;1142;533;2095;1;1
TMS_Ibrahim;42;3;"<?xml version=""1.0""?>\n<Clock xmlns:dt=""urn:schemas-microsoft-com:datatypes""><Description dt:dt=""string"">E-Prime Primary Realtime Clock</Description><StartTime><Timestamp dt:dt=""int"">0</Timestamp><DateUtc dt:dt=""string"">2022-10-21T13:58:52Z</DateUtc></StartTime><FrequencyChanges><FrequencyChange><Frequency dt:dt=""r8"">3312880</Frequency><Timestamp dt:dt=""r8"">31589202387</Timestamp><Current dt:dt=""r8"">0</Current><DateUtc dt:dt=""string"">2022-10-21T13:58:52Z</DateUtc></FrequencyChange></FrequencyChanges></Clock>\n";TMS_Ibrahim-42-3;7503;100561;1;;1525060434;2010242;2010242;10/21/2022;21/10/2022 13:58;15:58:53;2010147;0;;-999999;46;54562;0;1;1011;55573;1;1;1;2;1;1;1;BlockProcFischi;BlockList;1;100;0;;-999999;32;57229;0;1;773;58002;1;1;1;1;ProcFischi1;ListBlockFischi;20;1;1;0;0;5;Po5_B;225;4;ug;5;2;57;1;20;4;1;TrialProc;2071;975;Po5_B;254;1761;1507;ListFischi1;0;;2;203;215452;7;15;1796;217248;324;1;1796;1;1016;242;1472;1;1
TMS_Ibrahim;42;3;"<?xml version=""1.0""?>\n<Clock xmlns:dt=""urn:schemas-microsoft-com:datatypes""><Description dt:dt=""string"">E-Prime Primary Realtime Clock</Description><StartTime><Timestamp dt:dt=""int"">0</Timestamp><DateUtc dt:dt=""string"">2022-10-21T13:58:52Z</DateUtc></StartTime><FrequencyChanges><FrequencyChange><Frequency dt:dt=""r8"">3312880</Frequency><Timestamp dt:dt=""r8"">31589202387</Timestamp><Current dt:dt=""r8"">0</Current><DateUtc dt:dt=""string"">2022-10-21T13:58:52Z</DateUtc></FrequencyChange></FrequencyChanges></Clock>\n";TMS_Ibrahim-42-3;7503;100561;1;;1525060434;2010242;2010242;10/21/2022;21/10/2022 13:58;15:58:53;2010147;0;;-999999;46;54562;0;1;1011;55573;1;1;1;2;1;1;1;BlockProcFischi;BlockList;1;100;0;;-999999;32;57229;0;1;773;58002;1;1;1;1;ProcFischi1;ListBlockFischi;21;1;1;0;1;5;Po4_B;225;4;ug;5;2;61;1;21;4;1;TrialProc;867;1344;Po4_B;103;1819;1716;ListFischi1;0;;2;201;223106;16;155;2910;226016;302;1;1854;1;1145;340;1552;1;1
TMS_Ibrahim;42;3;"<?xml version=""1.0""?>\n<Clock xmlns:dt=""urn:schemas-microsoft-com:datatypes""><Description dt:dt=""string"">E-Prime Primary Realtime Clock</Description><StartTime><Timestamp dt:dt=""int"">0</Timestamp><DateUtc dt:dt=""string"">2022-10-21T13:58:52Z</DateUtc></StartTime><FrequencyChanges><FrequencyChange><Frequency dt:dt=""r8"">3312880</Frequency><Timestamp dt:dt=""r8"">31589202387</Timestamp><Current dt:dt=""r8"">0</Current><DateUtc dt:dt=""string"">2022-10-21T13:58:52Z</DateUtc></FrequencyChange></FrequencyChanges></Clock>\n";TMS_Ibrahim-42-3;7503;100561;1;;1525060434;2010242;2010242;10/21/2022;21/10/2022 13:58;15:58:53;2010147;0;;-999999;46;54562;0;1;1011;55573;1;1;1;2;1;1;1;BlockProcFischi;BlockList;1;100;0;;-999999;32;57229;0;1;773;58002;1;1;1;1;ProcFischi1;ListBlockFischi;22;1;2;0;1;3;Pr4_B;200;3;ug;3;2;19;1;22;3;1;TrialProc;1610;677;Pr4_B;281;1532;1251;ListFischi1;0;;2;203;230064;15;13;1552;231616;432;1;1552;1;811;515;1120;1;1
TMS_Ibrahim;42;3;"<?xml version=""1.0""?>\n<Clock xmlns:dt=""urn:schemas-microsoft-com:datatypes""><Description dt:dt=""string"">E-Prime Primary Realtime Clock</Description><StartTime><Timestamp dt:dt=""int"">0</Timestamp><DateUtc dt:dt=""string"">2022-10-21T13:58:52Z</DateUtc></StartTime><FrequencyChanges><FrequencyChange><Frequency dt:dt=""r8"">3312880</Frequency><Timestamp dt:dt=""r8"">31589202387</Timestamp><Current dt:dt=""r8"">0</Current><DateUtc dt:dt=""string"">2022-10-21T13:58:52Z</DateUtc></FrequencyChange></FrequencyChanges></Clock>\n";TMS_Ibrahim-42-3;7503;100561;1;;1525060434;2010242;2010242;10/21/2022;21/10/2022 13:58;15:58:53;2010147;0;;-999999;46;54562;0;1;1011;55573;1;1;1;2;1;1;1;BlockProcFischi;BlockList;1;100;0;;-999999;32;57229;0;1;773;58002;1;1;1;1;ProcFischi1;ListBlockFischi;23;1;2;0;1;5;Pr5_B;175;1;op;5;2;14;1;23;1;0;TrialProc;757;677;Pr5_B;229;1506;1277;ListFischi1;0;;2;201;237487;16;15;1536;239023;225;1;1536;1;782;463;1311;1;1
TMS_Ibrahim;42;3;"<?xml version=""1.0""?>\n<Clock xmlns:dt=""urn:schemas-microsoft-com:datatypes""><Description dt:dt=""string"">E-Prime Primary Realtime Clock</Description><StartTime><Timestamp dt:dt=""int"">0</Timestamp><DateUtc dt:dt=""string"">2022-10-21T13:58:52Z</DateUtc></StartTime><FrequencyChanges><FrequencyChange><Frequency dt:dt=""r8"">3312880</Frequency><Timestamp dt:dt=""r8"">31589202387</Timestamp><Current dt:dt=""r8"">0</Current><DateUtc dt:dt=""string"">2022-10-21T13:58:52Z</DateUtc></FrequencyChange></FrequencyChanges></Clock>\n";TMS_Ibrahim-42-3;7503;100561;1;;1525060434;2010242;2010242;10/21/2022;21/10/2022 13:58;15:58:53;2010147;0;;-999999;46;54562;0;1;1011;55573;1;1;1;2;1;1;1;BlockProcFischi;BlockList;1;100;0;;-999999;32;57229;0;1;773;58002;1;1;1;1;ProcFischi1;ListBlockFischi;24;1;1;0;2;3;Po2_B;150;2;op;3;2;43;1;24;2;0;TrialProc;1847;1579;Po2_B;188;1617;1805;ListFischi1;0;;2;203;244423;11;13;1640;246063;281;1;1640;1;541;238;1359;1;1
TMS_Ibrahim;42;3;"<?xml version=""1.0""?>\n<Clock xmlns:dt=""urn:schemas-microsoft-com:datatypes""><Description dt:dt=""string"">E-Prime Primary Realtime Clock</Description><StartTime><Timestamp dt:dt=""int"">0</Timestamp><DateUtc dt:dt=""string"">2022-10-21T13:58:52Z</DateUtc></StartTime><FrequencyChanges><FrequencyChange><Frequency dt:dt=""r8"">3312880</Frequency><Timestamp dt:dt=""r8"">31589202387</Timestamp><Current dt:dt=""r8"">0</Current><DateUtc dt:dt=""string"">2022-10-21T13:58:52Z</DateUtc></FrequencyChange></FrequencyChanges></Clock>\n";TMS_Ibrahim-42-3;7503;100561;1;;1525060434;2010242;2010242;10/21/2022;21/10/2022 13:58;15:58:53;2010147;0;;-999999;46;54562;0;1;1011;55573;1;1;1;2;1;1;1;BlockProcFischi;BlockList;1;100;0;;-999999;32;57229;0;1;773;58002;1;1;1;1;ProcFischi1;ListBlockFischi;25;1;2;0;2;5;Pr3_B;175;1;op;5;2;12;1;25;1;0;TrialProc;1131;720;Pr3_B;140;1858;1719;ListFischi1;0;;2;203;252879;18;15;1888;254767;496;1;1888;1;937;307;1392;1;1
TMS_Ibrahim;42;3;"<?xml version=""1.0""?>\n<Clock xmlns:dt=""urn:schemas-microsoft-com:datatypes""><Description dt:dt=""string"">E-Prime Primary Realtime Clock</Description><StartTime><Timestamp dt:dt=""int"">0</Timestamp><DateUtc dt:dt=""string"">2022-10-21T13:58:52Z</DateUtc></StartTime><FrequencyChanges><FrequencyChange><Frequency dt:dt=""r8"">3312880</Frequency><Timestamp dt:dt=""r8"">31589202387</Timestamp><Current dt:dt=""r8"">0</Current><DateUtc dt:dt=""string"">2022-10-21T13:58:52Z</DateUtc></FrequencyChange></FrequencyChanges></Clock>\n";TMS_Ibrahim-42-3;7503;100561;1;;1525060434;2010242;2010242;10/21/2022;21/10/2022 13:58;15:58:53;2010147;0;;-999999;46;54562;0;1;1011;55573;1;1;1;2;1;1;1;BlockProcFischi;BlockList;1;100;0;;-999999;32;57229;0;1;773;58002;1;1;1;1;ProcFischi1;ListBlockFischi;26;1;2;0;0;5;Pr5_B;150;1;op;5;2;9;1;26;1;0;TrialProc;2985;672;Pr5_B;363;1636;1272;ListFischi1;0;;2;203;260909;12;15;1666;262575;354;1;1666;1;855;336;1312;1;1
TMS_Ibrahim;42;3;"<?xml version=""1.0""?>\n<Clock xmlns:dt=""urn:schemas-microsoft-com:datatypes""><Description dt:dt=""string"">E-Prime Primary Realtime Clock</Description><StartTime><Timestamp dt:dt=""int"">0</Timestamp><DateUtc dt:dt=""string"">2022-10-21T13:58:52Z</DateUtc></StartTime><FrequencyChanges><FrequencyChange><Frequency dt:dt=""r8"">3312880</Frequency><Timestamp dt:dt=""r8"">31589202387</Timestamp><Current dt:dt=""r8"">0</Current><DateUtc dt:dt=""string"">2022-10-21T13:58:52Z</DateUtc></FrequencyChange></FrequencyChanges></Clock>\n";TMS_Ibrahim-42-3;7503;100561;1;;1525060434;2010242;2010242;10/21/2022;21/10/2022 13:58;15:58:53;2010147;0;;-999999;46;54562;0;1;1011;55573;1;1;1;2;1;1;1;BlockProcFischi;BlockList;1;100;0;;-999999;32;57229;0;1;773;58002;1;1;1;1;ProcFischi1;ListBlockFischi;27;1;2;0;2;3;Pr5_B;200;3;ug;3;2;20;1;27;3;1;TrialProc;3259;671;Pr5_B;307;1579;1271;ListFischi1;0;;2;203;269121;10;13;1613;270734;253;1;1613;1;913;221;1360;1;1
TMS_Ibrahim;42;3;"<?xml version=""1.0""?>\n<Clock xmlns:dt=""urn:schemas-microsoft-com:datatypes""><Description dt:dt=""string"">E-Prime Primary Realtime Clock</Description><StartTime><Timestamp dt:dt=""int"">0</Timestamp><DateUtc dt:dt=""string"">2022-10-21T13:58:52Z</DateUtc></StartTime><FrequencyChanges><FrequencyChange><Frequency dt:dt=""r8"">3312880</Frequency><Timestamp dt:dt=""r8"">31589202387</Timestamp><Current dt:dt=""r8"">0</Current><DateUtc dt:dt=""string"">2022-10-21T13:58:52Z</DateUtc></FrequencyChange></FrequencyChanges></Clock>\n";TMS_Ibrahim-42-3;7503;100561;1;;1525060434;2010242;2010242;10/21/2022;21/10/2022 13:58;15:58:53;2010147;0;;-999999;46;54562;0;1;1011;55573;1;1;1;2;1;1;1;BlockProcFischi;BlockList;1;100;0;;-999999;32;57229;0;1;773;58002;1;1;1;1;ProcFischi1;ListBlockFischi;28;1;1;0;0;3;Po3_B;175;2;op;3;2;44;1;28;2;0;TrialProc;2554;1315;Po3_B;134;1449;1582;ListFischi1;0;;2;203;277806;15;13;1472;279278;289;1;1472;1;702;463;1183;1;1
TMS_Ibrahim;42;3;"<?xml version=""1.0""?>\n<Clock xmlns:dt=""urn:schemas-microsoft-com:datatypes""><Description dt:dt=""string"">E-Prime Primary Realtime Clock</Description><StartTime><Timestamp dt:dt=""int"">0</Timestamp><DateUtc dt:dt=""string"">2022-10-21T13:58:52Z</DateUtc></StartTime><FrequencyChanges><FrequencyChange><Frequency dt:dt=""r8"">3312880</Frequency><Timestamp dt:dt=""r8"">31589202387</Timestamp><Current dt:dt=""r8"">0</Current><DateUtc dt:dt=""string"">2022-10-21T13:58:52Z</DateUtc></FrequencyChange></FrequencyChanges></Clock>\n";TMS_Ibrahim-42-3;7503;100561;1;;1525060434;2010242;2010242;10/21/2022;21/10/2022 13:58;15:58:53;2010147;0;;-999999;46;54562;0;1;1011;55573;1;1;1;2;1;1;1;BlockProcFischi;BlockList;1;100;0;;-999999;32;57229;0;1;773;58002;1;1;1;1;ProcFischi1;ListBlockFischi;29;1;1;0;0;5;Po3_B;200;4;ug;5;2;55;1;29;4;1;TrialProc;2728;1313;Po3_B;25;1605;1581;ListFischi1;0;;2;203;286698;12;155;1684;288382;228;1;1636;1;1304;338;1408;1;1
TMS_Ibrahim;42;3;"<?xml version=""1.0""?>\n<Clock xmlns:dt=""urn:schemas-microsoft-com:datatypes""><Description dt:dt=""string"">E-Prime Primary Realtime Clock</Description><StartTime><Timestamp dt:dt=""int"">0</Timestamp><DateUtc dt:dt=""string"">2022-10-21T13:58:52Z</DateUtc></StartTime><FrequencyChanges><FrequencyChange><Frequency dt:dt=""r8"">3312880</Frequency><Timestamp dt:dt=""r8"">31589202387</Timestamp><Current dt:dt=""r8"">0</Current><DateUtc dt:dt=""string"">2022-10-21T13:58:52Z</DateUtc></FrequencyChange></FrequencyChanges></Clock>\n";TMS_Ibrahim-42-3;7503;100561;1;;1525060434;2010242;2010242;10/21/2022;21/10/2022 13:58;15:58:53;2010147;0;;-999999;46;54562;0;1;1011;55573;1;1;1;2;1;1;1;BlockProcFischi;BlockList;1;100;0;;-999999;32;57229;0;1;773;58002;1;1;1;1;ProcFischi1;ListBlockFischi;30;1;1;0;0;5;Po3_B;175;4;ug;5;2;60;1;30;4;1;TrialProc;1617;1308;Po3_B;86;1660;1574;ListFischi1;0;;2;203;295701;6;15;1688;297389;232;1;1688;1;1314;243;1456;1;1
TMS_Ibrahim;42;3;"<?xml version=""1.0""?>\n<Clock xmlns:dt=""urn:schemas-microsoft-com:datatypes""><Description dt:dt=""string"">E-Prime Primary Realtime Clock</Description><StartTime><Timestamp dt:dt=""int"">0</Timestamp><DateUtc dt:dt=""string"">2022-10-21T13:58:52Z</DateUtc></StartTime><FrequencyChanges><FrequencyChange><Frequency dt:dt=""r8"">3312880</Frequency><Timestamp dt:dt=""r8"">31589202387</Timestamp><Current dt:dt=""r8"">0</Current><DateUtc dt:dt=""string"">2022-10-21T13:58:52Z</DateUtc></FrequencyChange></FrequencyChanges></Clock>\n";TMS_Ibrahim-42-3;7503;100561;1;;1525060434;2010242;2010242;10/21/2022;21/10/2022 13:58;15:58:53;2010147;0;;-999999;46;54562;0;1;1011;55573;1;1;1;2;1;1;1;BlockProcFischi;BlockList;1;100;0;;-999999;32;57229;0;1;773;58002;1;1;1;1;ProcFischi1;ListBlockFischi;31;1;1;0;0;5;Po8_B;150;4;ug;5;2;53;1;31;4;1;TrialProc;3250;1242;Po8_B;266;1842;1575;ListFischi1;0;;2;203;303949;8;15;1872;305821;464;1;1872;1;1436;584;1408;1;1
TMS_Ibrahim;42;3;"<?xml version=""1.0""?>\n<Clock xmlns:dt=""urn:schemas-microsoft-com:datatypes""><Description dt:dt=""string"">E-Prime Primary Realtime Clock</Description><StartTime><Timestamp dt:dt=""int"">0</Timestamp><DateUtc dt:dt=""string"">2022-10-21T13:58:52Z</DateUtc></StartTime><FrequencyChanges><FrequencyChange><Frequency dt:dt=""r8"">3312880</Frequency><Timestamp dt:dt=""r8"">31589202387</Timestamp><Current dt:dt=""r8"">0</Current><DateUtc dt:dt=""string"">2022-10-21T13:58:52Z</DateUtc></FrequencyChange></FrequencyChanges></Clock>\n";TMS_Ibrahim-42-3;7503;100561;1;;1525060434;2010242;2010242;10/21/2022;21/10/2022 13:58;15:58:53;2010147;0;;-999999;46;54562;0;1;1011;55573;1;1;1;2;1;1;1;BlockProcFischi;BlockList;1;100;0;;-999999;32;57229;0;1;773;58002;1;1;1;1;ProcFischi1;ListBlockFischi;32;1;1;0;0;3;Po5_B;150;2;op;3;2;41;1;32;2;0;TrialProc;2464;980;Po5_B;25;1497;1473;ListFischi1;0;;2;203;312888;12;13;1525;314413;197;1;1525;1;955;509;1328;1;1
TMS_Ibrahim;42;3;"<?xml version=""1.0""?>\n<Clock xmlns:dt=""urn:schemas-microsoft-com:datatypes""><Description dt:dt=""string"">E-Prime Primary Realtime Clock</Description><StartTime><Timestamp dt:dt=""int"">0</Timestamp><DateUtc dt:dt=""string"">2022-10-21T13:58:52Z</DateUtc></StartTime><FrequencyChanges><FrequencyChange><Frequency dt:dt=""r8"">3312880</Frequency><Timestamp dt:dt=""r8"">31589202387</Timestamp><Current dt:dt=""r8"">0</Current><DateUtc dt:dt=""string"">2022-10-21T13:58:52Z</DateUtc></FrequencyChange></FrequencyChanges></Clock>\n";TMS_Ibrahim-42-3;7503;100561;1;;1525060434;2010242;2010242;10/21/2022;21/10/2022 13:58;15:58:53;2010147;0;;-999999;46;54562;0;1;1011;55573;1;1;1;2;1;1;1;BlockProcFischi;BlockList;1;100;0;;-999999;32;57229;0;1;773;58002;1;1;1;1;ProcFischi1;ListBlockFischi;33;1;1;0;0;3;Po4_B;125;2;op;3;2;35;1;33;2;0;TrialProc;2147;1335;Po4_B;284;1424;1708;ListFischi1;0;;2;203;321063;7;13;1446;322509;118;1;1446;1;565;587;1328;1;1
TMS_Ibrahim;42;3;"<?xml version=""1.0""?>\n<Clock xmlns:dt=""urn:schemas-microsoft-com:datatypes""><Description dt:dt=""string"">E-Prime Primary Realtime Clock</Description><StartTime><Timestamp dt:dt=""int"">0</Timestamp><DateUtc dt:dt=""string"">2022-10-21T13:58:52Z</DateUtc></StartTime><FrequencyChanges><FrequencyChange><Frequency dt:dt=""r8"">3312880</Frequency><Timestamp dt:dt=""r8"">31589202387</Timestamp><Current dt:dt=""r8"">0</Current><DateUtc dt:dt=""string"">2022-10-21T13:58:52Z</DateUtc></FrequencyChange></FrequencyChanges></Clock>\n";TMS_Ibrahim-42-3;7503;100561;1;;1525060434;2010242;2010242;10/21/2022;21/10/2022 13:58;15:58:53;2010147;0;;-999999;46;54562;0;1;1011;55573;1;1;1;2;1;1;1;BlockProcFischi;BlockList;1;100;0;;-999999;32;57229;0;1;773;58002;1;1;1;1;ProcFischi1;ListBlockFischi;34;1;1;0;1;5;Po2_B;150;4;ug;5;2;54;1;34;4;1;TrialProc;2003;1583;Po2_B;86;1723;1810;ListFischi1;0;;2;203;329425;15;155;2715;332140;251;1;1755;1;637;397;1504;1;1
TMS_Ibrahim;42;3;"<?xml version=""1.0""?>\n<Clock xmlns:dt=""urn:schemas-microsoft-com:datatypes""><Description dt:dt=""string"">E-Prime Primary Realtime Clock</Description><StartTime><Timestamp dt:dt=""int"">0</Timestamp><DateUtc dt:dt=""string"">2022-10-21T13:58:52Z</DateUtc></StartTime><FrequencyChanges><FrequencyChange><Frequency dt:dt=""r8"">3312880</Frequency><Timestamp dt:dt=""r8"">31589202387</Timestamp><Current dt:dt=""r8"">0</Current><DateUtc dt:dt=""string"">2022-10-21T13:58:52Z</DateUtc></FrequencyChange></FrequencyChanges></Clock>\n";TMS_Ibrahim-42-3;7503;100561;1;;1525060434;2010242;2010242;10/21/2022;21/10/2022 13:58;15:58:53;2010147;0;;-999999;46;54562;0;1;1011;55573;1;1;1;2;1;1;1;BlockProcFischi;BlockList;1;100;0;;-999999;32;57229;0;1;773;58002;1;1;1;1;ProcFischi1;ListBlockFischi;35;1;1;0;0;5;Po2_B;125;4;ug;5;2;49;1;35;4;1;TrialProc;1934;1579;Po2_B;2;1806;1805;ListFischi1;0;;2;201;336867;10;151;4009;340876;329;1;1833;1;606;297;1504;1;1
TMS_Ibrahim;42;3;"<?xml version=""1.0""?>\n<Clock xmlns:dt=""urn:schemas-microsoft-com:datatypes""><Description dt:dt=""string"">E-Prime Primary Realtime Clock</Description><StartTime><Timestamp dt:dt=""int"">0</Timestamp><DateUtc dt:dt=""string"">2022-10-21T13:58:52Z</DateUtc></StartTime><FrequencyChanges><FrequencyChange><Frequency dt:dt=""r8"">3312880</Frequency><Timestamp dt:dt=""r8"">31589202387</Timestamp><Current dt:dt=""r8"">0</Current><DateUtc dt:dt=""string"">2022-10-21T13:58:52Z</DateUtc></FrequencyChange></FrequencyChanges></Clock>\n";TMS_Ibrahim-42-3;7503;100561;1;;1525060434;2010242;2010242;10/21/2022;21/10/2022 13:58;15:58:53;2010147;0;;-999999;46;54562;0;1;1011;55573;1;1;1;2;1;1;1;BlockProcFischi;BlockList;1;100;0;;-999999;32;57229;0;1;773;58002;1;1;1;1;ProcFischi1;ListBlockFischi;36;1;1;0;1;3;Po4_B;125;2;op;3;2;40;1;36;2;0;TrialProc;1776;1337;Po4_B;258;1452;1710;ListFischi1;0;;2;203;344372;9;13;1480;345852;328;1;1480;1;615;226;1152;1;1
TMS_Ibrahim;42;3;"<?xml version=""1.0""?>\n<Clock xmlns:dt=""urn:schemas-microsoft-com:datatypes""><Description dt:dt=""string"">E-Prime Primary Realtime Clock</Description><StartTime><Timestamp dt:dt=""int"">0</Timestamp><DateUtc dt:dt=""string"">2022-10-21T13:58:52Z</DateUtc></StartTime><FrequencyChanges><FrequencyChange><Frequency dt:dt=""r8"">3312880</Frequency><Timestamp dt:dt=""r8"">31589202387</Timestamp><Current dt:dt=""r8"">0</Current><DateUtc dt:dt=""string"">2022-10-21T13:58:52Z</DateUtc></FrequencyChange></FrequencyChanges></Clock>\n";TMS_Ibrahim-42-3;7503;100561;1;;1525060434;2010242;2010242;10/21/2022;21/10/2022 13:58;15:58:53;2010147;0;;-999999;46;54562;0;1;1011;55573;1;1;1;2;1;1;1;BlockProcFischi;BlockList;1;100;0;;-999999;32;57229;0;1;773;58002;1;1;1;1;ProcFischi1;ListBlockFischi;37;1;2;1;1;5;Prmod_B;150;1;op;5;2;15;1;37;1;0;TrialProc;1773;1313;Prmod_B;144;1791;1647;ListFischi1;0;;2;203;353246;12;15;1821;355067;285;1;1821;1;758;378;1536;1;1
