ExperimentName;Subject;Session;Clock.Information;DataFile.Basename;Display.RefreshRate;ExperimentVersion;Group;Name;RandomSeed;RuntimeVersion;RuntimeVersionExpected;SessionDate;SessionStartDateTimeUtc;SessionTime;StudioVersion;SyncEprimeKinB1.ACC;SyncEprimeKinB1.CRESP;SyncEprimeKinB1.DurationError;SyncEprimeKinB1.OnsetDelay;SyncEprimeKinB1.OnsetTime;SyncEprimeKinB1.OnsetToOnsetTime;SyncEprimeKinB1.RESP;SyncEprimeKinB1.RT;SyncEprimeKinB1.RTTime;Block;BlockINT_0Fischi_1Suoni;BlockList;BlockList.Cycle;BlockList.Sample;ContatoreSuoni;NumSuono;Procedure[Block];Running[Block];Suonilist;SuonoFinSoglia;SyncEprimeKinFischi1.ACC;SyncEprimeKinFischi1.CRESP;SyncEprimeKinFischi1.DurationError;SyncEprimeKinFischi1.OnsetDelay;SyncEprimeKinFischi1.OnsetTime;SyncEprimeKinFischi1.OnsetToOnsetTime;SyncEprimeKinFischi1.RESP;SyncEprimeKinFischi1.RT;SyncEprimeKinFischi1.RTTime;Trial;ListBlockFischi;ListBlockFischi.Cycle;ListBlockFischi.Sample;Procedure[Trial];Running[Trial];SubTrial;AccSogg1;Avatar_Giu1_Su2;CatchTrial_CORR;ContatoreFinestraSoglia;CorrectResponse;File_Name;FinestraSoglia;IdcondEEG;Istruzione;KeySoggetto1;KeySoggetto2;ListFischi1;ListFischi1.Cycle;ListFischi1.Sample;NumeroSuono;OP_UG;Procedure[SubTrial];Resoconto.RT;RTChange;RTimage;RTNetto;RTSubj;RTTouch;Running[SubTrial];StartGo.ACC;StartGo.CRESP;StartGo.DurationError;StartGo.OnsetDelay;StartGo.OnsetTime;StartGo.OnsetToOnsetTime;StartGo.RESP;StartGo.RT;StartGo.RTTime;StartSoggetto1;StartSoggetto2;StopSoggetto1;StopSoggetto2;StopTrial.RT;tempo;TMSoggetto1;ValiditaTrial;Vincitore
TMS_Ibrahim;43;2;"<?xml version=""1.0""?>\n<Clock xmlns:dt=""urn:schemas-microsoft-com:datatypes""><Description dt:dt=""string"">E-Prime Primary Realtime Clock</Description><StartTime><Timestamp dt:dt=""int"">0</Timestamp><DateUtc dt:dt=""string"">2022-10-27T09:12:13Z</DateUtc></StartTime><FrequencyChanges><FrequencyChange><Frequency dt:dt=""r8"">3312871</Frequency><Timestamp dt:dt=""r8"">15422129601</Timestamp><Current dt:dt=""r8"">0</Current><DateUtc dt:dt=""string"">2022-10-27T09:12:13Z</DateUtc></FrequencyChange></FrequencyChanges></Clock>\n";TMS_Ibrahim-43-2;75.030;1.0.0.561;1;;-1757077764;2.0.10.242;2.0.10.242;10-27-2022;27/10/2022 09:12;11:12:13;2.0.10.147;0;;-999999;16;11651;0;1;3296;14947;1;1;1;2;1;1;1;BlockProcFischi;BlockList;1;150;0;;-999999;13;15948;0;1;1453;17401;1;1;1;1;ProcFischi1;ListBlockFischi;1;1;1;0;0;3;Po5_B;250;2;op;3;2;46;1;1;2;0;TrialProc;659;988;Po5_B;48;1528;1481;ListFischi1;0;;3;203;21360;22;13;1557;22917;501;1;1557;1;609;218;1056;1;1
TMS_Ibrahim;43;2;"<?xml version=""1.0""?>\n<Clock xmlns:dt=""urn:schemas-microsoft-com:datatypes""><Description dt:dt=""string"">E-Prime Primary Realtime Clock</Description><StartTime><Timestamp dt:dt=""int"">0</Timestamp><DateUtc dt:dt=""string"">2022-10-27T09:12:13Z</DateUtc></StartTime><FrequencyChanges><FrequencyChange><Frequency dt:dt=""r8"">3312871</Frequency><Timestamp dt:dt=""r8"">15422129601</Timestamp><Current dt:dt=""r8"">0</Current><DateUtc dt:dt=""string"">2022-10-27T09:12:13Z</DateUtc></FrequencyChange></FrequencyChanges></Clock>\n";TMS_Ibrahim-43-2;75.030;1.0.0.561;1;;-1757077764;2.0.10.242;2.0.10.242;10-27-2022;27/10/2022 09:12;11:12:13;2.0.10.147;0;;-999999;16;11651;0;1;3296;14947;1;1;1;2;1;1;1;BlockProcFischi;BlockList;1;150;0;;-999999;13;15948;0;1;1453;17401;1;1;1;1;ProcFischi1;ListBlockFischi;2;1;2;0;0;3;Pr8_B;250;3;ug;3;2;26;1;2;3;1;TrialProc;457;711;Pr8_B;40;1696;1736;ListFischi1;0;;1;204;28505;8;13;1724;30229;396;1;1724;1;2263;205;1328;1;1
TMS_Ibrahim;43;2;"<?xml version=""1.0""?>\n<Clock xmlns:dt=""urn:schemas-microsoft-com:datatypes""><Description dt:dt=""string"">E-Prime Primary Realtime Clock</Description><StartTime><Timestamp dt:dt=""int"">0</Timestamp><DateUtc dt:dt=""string"">2022-10-27T09:12:13Z</DateUtc></StartTime><FrequencyChanges><FrequencyChange><Frequency dt:dt=""r8"">3312871</Frequency><Timestamp dt:dt=""r8"">15422129601</Timestamp><Current dt:dt=""r8"">0</Current><DateUtc dt:dt=""string"">2022-10-27T09:12:13Z</DateUtc></FrequencyChange></FrequencyChanges></Clock>\n";TMS_Ibrahim-43-2;75.030;1.0.0.561;1;;-1757077764;2.0.10.242;2.0.10.242;10-27-2022;27/10/2022 09:12;11:12:13;2.0.10.147;0;;-999999;16;11651;0;1;3296;14947;1;1;1;2;1;1;1;BlockProcFischi;BlockList;1;150;0;;-999999;13;15948;0;1;1453;17401;1;1;1;1;ProcFischi1;ListBlockFischi;3;1;2;0;0;5;Pr5_B;250;1;op;5;2;9;1;3;1;0;TrialProc;708;679;Pr5_B;241;1518;1278;ListFischi1;0;;2;203;35707;16;15;1546;37253;426;1;1546;1;935;262;1120;1;1
TMS_Ibrahim;43;2;"<?xml version=""1.0""?>\n<Clock xmlns:dt=""urn:schemas-microsoft-com:datatypes""><Description dt:dt=""string"">E-Prime Primary Realtime Clock</Description><StartTime><Timestamp dt:dt=""int"">0</Timestamp><DateUtc dt:dt=""string"">2022-10-27T09:12:13Z</DateUtc></StartTime><FrequencyChanges><FrequencyChange><Frequency dt:dt=""r8"">3312871</Frequency><Timestamp dt:dt=""r8"">15422129601</Timestamp><Current dt:dt=""r8"">0</Current><DateUtc dt:dt=""string"">2022-10-27T09:12:13Z</DateUtc></FrequencyChange></FrequencyChanges></Clock>\n";TMS_Ibrahim-43-2;75.030;1.0.0.561;1;;-1757077764;2.0.10.242;2.0.10.242;10-27-2022;27/10/2022 09:12;11:12:13;2.0.10.147;0;;-999999;16;11651;0;1;3296;14947;1;1;1;2;1;1;1;BlockProcFischi;BlockList;1;150;0;;-999999;13;15948;0;1;1453;17401;1;1;1;1;ProcFischi1;ListBlockFischi;4;1;2;0;0;3;Pr3_B;225;3;ug;3;2;18;1;4;3;1;TrialProc;563;717;Pr3_B;55;1662;1718;ListFischi1;0;;3;201;42864;16;13;1684;44548;661;1;1684;1;303;253;1023;1;1
TMS_Ibrahim;43;2;"<?xml version=""1.0""?>\n<Clock xmlns:dt=""urn:schemas-microsoft-com:datatypes""><Description dt:dt=""string"">E-Prime Primary Realtime Clock</Description><StartTime><Timestamp dt:dt=""int"">0</Timestamp><DateUtc dt:dt=""string"">2022-10-27T09:12:13Z</DateUtc></StartTime><FrequencyChanges><FrequencyChange><Frequency dt:dt=""r8"">3312871</Frequency><Timestamp dt:dt=""r8"">15422129601</Timestamp><Current dt:dt=""r8"">0</Current><DateUtc dt:dt=""string"">2022-10-27T09:12:13Z</DateUtc></FrequencyChange></FrequencyChanges></Clock>\n";TMS_Ibrahim-43-2;75.030;1.0.0.561;1;;-1757077764;2.0.10.242;2.0.10.242;10-27-2022;27/10/2022 09:12;11:12:13;2.0.10.147;0;;-999999;16;11651;0;1;3296;14947;1;1;1;2;1;1;1;BlockProcFischi;BlockList;1;150;0;;-999999;13;15948;0;1;1453;17401;1;1;1;1;ProcFischi1;ListBlockFischi;5;1;2;0;0;3;Pr2_B;200;3;ug;3;2;17;1;5;3;1;TrialProc;1072;715;Pr2_B;95;1343;1248;ListFischi1;0;;2;203;50172;12;13;1368;51540;441;1;1368;1;416;366;927;1;1
TMS_Ibrahim;43;2;"<?xml version=""1.0""?>\n<Clock xmlns:dt=""urn:schemas-microsoft-com:datatypes""><Description dt:dt=""string"">E-Prime Primary Realtime Clock</Description><StartTime><Timestamp dt:dt=""int"">0</Timestamp><DateUtc dt:dt=""string"">2022-10-27T09:12:13Z</DateUtc></StartTime><FrequencyChanges><FrequencyChange><Frequency dt:dt=""r8"">3312871</Frequency><Timestamp dt:dt=""r8"">15422129601</Timestamp><Current dt:dt=""r8"">0</Current><DateUtc dt:dt=""string"">2022-10-27T09:12:13Z</DateUtc></FrequencyChange></FrequencyChanges></Clock>\n";TMS_Ibrahim-43-2;75.030;1.0.0.561;1;;-1757077764;2.0.10.242;2.0.10.242;10-27-2022;27/10/2022 09:12;11:12:13;2.0.10.147;0;;-999999;16;11651;0;1;3296;14947;1;1;1;2;1;1;1;BlockProcFischi;BlockList;1;150;0;;-999999;13;15948;0;1;1453;17401;1;1;1;1;ProcFischi1;ListBlockFischi;6;1;1;1;0;3;Pomod_B;225;2;op;3;2;48;1;6;2;0;TrialProc;1004;1314;Pomod_B;157;1832;1674;ListFischi1;0;;2;201;57157;11;13;1855;59012;271;1;1855;1;275;431;1584;1;1
TMS_Ibrahim;43;2;"<?xml version=""1.0""?>\n<Clock xmlns:dt=""urn:schemas-microsoft-com:datatypes""><Description dt:dt=""string"">E-Prime Primary Realtime Clock</Description><StartTime><Timestamp dt:dt=""int"">0</Timestamp><DateUtc dt:dt=""string"">2022-10-27T09:12:13Z</DateUtc></StartTime><FrequencyChanges><FrequencyChange><Frequency dt:dt=""r8"">3312871</Frequency><Timestamp dt:dt=""r8"">15422129601</Timestamp><Current dt:dt=""r8"">0</Current><DateUtc dt:dt=""string"">2022-10-27T09:12:13Z</DateUtc></FrequencyChange></FrequencyChanges></Clock>\n";TMS_Ibrahim-43-2;75.030;1.0.0.561;1;;-1757077764;2.0.10.242;2.0.10.242;10-27-2022;27/10/2022 09:12;11:12:13;2.0.10.147;0;;-999999;16;11651;0;1;3296;14947;1;1;1;2;1;1;1;BlockProcFischi;BlockList;1;150;0;;-999999;13;15948;0;1;1453;17401;1;1;1;1;ProcFischi1;ListBlockFischi;7;0;2;0;0;5;Pr5_B;;1;op;1;2;14;1;7;1;0;TrialProc;1329;672;Pr5_B;157;1832;1271;ListFischi1;0;;2;203;64182;10;155;1822;66004;574;1;1;1;194;459;-573;1;0
TMS_Ibrahim;43;2;"<?xml version=""1.0""?>\n<Clock xmlns:dt=""urn:schemas-microsoft-com:datatypes""><Description dt:dt=""string"">E-Prime Primary Realtime Clock</Description><StartTime><Timestamp dt:dt=""int"">0</Timestamp><DateUtc dt:dt=""string"">2022-10-27T09:12:13Z</DateUtc></StartTime><FrequencyChanges><FrequencyChange><Frequency dt:dt=""r8"">3312871</Frequency><Timestamp dt:dt=""r8"">15422129601</Timestamp><Current dt:dt=""r8"">0</Current><DateUtc dt:dt=""string"">2022-10-27T09:12:13Z</DateUtc></FrequencyChange></FrequencyChanges></Clock>\n";TMS_Ibrahim-43-2;75.030;1.0.0.561;1;;-1757077764;2.0.10.242;2.0.10.242;10-27-2022;27/10/2022 09:12;11:12:13;2.0.10.147;0;;-999999;16;11651;0;1;3296;14947;1;1;1;2;1;1;1;BlockProcFischi;BlockList;1;150;0;;-999999;13;15948;0;1;1453;17401;1;1;1;1;ProcFischi1;ListBlockFischi;8;1;1;0;0;5;Po5_B;250;4;ug;5;2;57;1;8;4;1;TrialProc;1268;979;Po5_B;176;1297;1473;ListFischi1;0;;2;201;70912;11;15;1332;72244;340;1;1332;1;310;457;992;1;1
TMS_Ibrahim;43;2;"<?xml version=""1.0""?>\n<Clock xmlns:dt=""urn:schemas-microsoft-com:datatypes""><Description dt:dt=""string"">E-Prime Primary Realtime Clock</Description><StartTime><Timestamp dt:dt=""int"">0</Timestamp><DateUtc dt:dt=""string"">2022-10-27T09:12:13Z</DateUtc></StartTime><FrequencyChanges><FrequencyChange><Frequency dt:dt=""r8"">3312871</Frequency><Timestamp dt:dt=""r8"">15422129601</Timestamp><Current dt:dt=""r8"">0</Current><DateUtc dt:dt=""string"">2022-10-27T09:12:13Z</DateUtc></FrequencyChange></FrequencyChanges></Clock>\n";TMS_Ibrahim-43-2;75.030;1.0.0.561;1;;-1757077764;2.0.10.242;2.0.10.242;10-27-2022;27/10/2022 09:12;11:12:13;2.0.10.147;0;;-999999;16;11651;0;1;3296;14947;1;1;1;2;1;1;1;BlockProcFischi;BlockList;1;150;0;;-999999;13;15948;0;1;1453;17401;1;1;1;1;ProcFischi1;ListBlockFischi;9;1;2;0;0;5;Pr8_B;250;1;op;5;2;5;1;9;1;0;TrialProc;1597;709;Pr8_B;119;1855;1735;ListFischi1;0;;2;203;78126;7;15;1877;80003;389;1;1877;1;369;344;1488;1;1
TMS_Ibrahim;43;2;"<?xml version=""1.0""?>\n<Clock xmlns:dt=""urn:schemas-microsoft-com:datatypes""><Description dt:dt=""string"">E-Prime Primary Realtime Clock</Description><StartTime><Timestamp dt:dt=""int"">0</Timestamp><DateUtc dt:dt=""string"">2022-10-27T09:12:13Z</DateUtc></StartTime><FrequencyChanges><FrequencyChange><Frequency dt:dt=""r8"">3312871</Frequency><Timestamp dt:dt=""r8"">15422129601</Timestamp><Current dt:dt=""r8"">0</Current><DateUtc dt:dt=""string"">2022-10-27T09:12:13Z</DateUtc></FrequencyChange></FrequencyChanges></Clock>\n";TMS_Ibrahim-43-2;75.030;1.0.0.561;1;;-1757077764;2.0.10.242;2.0.10.242;10-27-2022;27/10/2022 09:12;11:12:13;2.0.10.147;0;;-999999;16;11651;0;1;3296;14947;1;1;1;2;1;1;1;BlockProcFischi;BlockList;1;150;0;;-999999;13;15948;0;1;1453;17401;1;1;1;1;ProcFischi1;ListBlockFischi;10;1;1;0;0;3;Po3_B;200;2;op;3;2;44;1;10;2;0;TrialProc;1302;1319;Po3_B;110;1476;1586;ListFischi1;0;;2;201;85206;18;13;1501;86707;413;1;1501;1;513;430;1088;1;1
TMS_Ibrahim;43;2;"<?xml version=""1.0""?>\n<Clock xmlns:dt=""urn:schemas-microsoft-com:datatypes""><Description dt:dt=""string"">E-Prime Primary Realtime Clock</Description><StartTime><Timestamp dt:dt=""int"">0</Timestamp><DateUtc dt:dt=""string"">2022-10-27T09:12:13Z</DateUtc></StartTime><FrequencyChanges><FrequencyChange><Frequency dt:dt=""r8"">3312871</Frequency><Timestamp dt:dt=""r8"">15422129601</Timestamp><Current dt:dt=""r8"">0</Current><DateUtc dt:dt=""string"">2022-10-27T09:12:13Z</DateUtc></FrequencyChange></FrequencyChanges></Clock>\n";TMS_Ibrahim-43-2;75.030;1.0.0.561;1;;-1757077764;2.0.10.242;2.0.10.242;10-27-2022;27/10/2022 09:12;11:12:13;2.0.10.147;0;;-999999;16;11651;0;1;3296;14947;1;1;1;2;1;1;1;BlockProcFischi;BlockList;1;150;0;;-999999;13;15948;0;1;1453;17401;1;1;1;1;ProcFischi1;ListBlockFischi;11;1;2;0;0;3;Pr2_B;175;3;ug;3;2;22;1;11;3;1;TrialProc;838;709;Pr2_B;179;1421;1243;ListFischi1;0;;2;203;92519;9;13;1452;93971;332;1;1452;1;357;202;1120;1;1
TMS_Ibrahim;43;2;"<?xml version=""1.0""?>\n<Clock xmlns:dt=""urn:schemas-microsoft-com:datatypes""><Description dt:dt=""string"">E-Prime Primary Realtime Clock</Description><StartTime><Timestamp dt:dt=""int"">0</Timestamp><DateUtc dt:dt=""string"">2022-10-27T09:12:13Z</DateUtc></StartTime><FrequencyChanges><FrequencyChange><Frequency dt:dt=""r8"">3312871</Frequency><Timestamp dt:dt=""r8"">15422129601</Timestamp><Current dt:dt=""r8"">0</Current><DateUtc dt:dt=""string"">2022-10-27T09:12:13Z</DateUtc></FrequencyChange></FrequencyChanges></Clock>\n";TMS_Ibrahim-43-2;75.030;1.0.0.561;1;;-1757077764;2.0.10.242;2.0.10.242;10-27-2022;27/10/2022 09:12;11:12:13;2.0.10.147;0;;-999999;16;11651;0;1;3296;14947;1;1;1;2;1;1;1;BlockProcFischi;BlockList;1;150;0;;-999999;13;15948;0;1;1453;17401;1;1;1;1;ProcFischi1;ListBlockFischi;12;1;1;0;0;5;Po8_B;225;4;ug;5;2;53;1;12;4;1;TrialProc;696;1247;Po8_B;47;1533;1581;ListFischi1;0;;2;201;99633;12;15;1554;101187;386;1;1554;1;516;600;1168;1;1
TMS_Ibrahim;43;2;"<?xml version=""1.0""?>\n<Clock xmlns:dt=""urn:schemas-microsoft-com:datatypes""><Description dt:dt=""string"">E-Prime Primary Realtime Clock</Description><StartTime><Timestamp dt:dt=""int"">0</Timestamp><DateUtc dt:dt=""string"">2022-10-27T09:12:13Z</DateUtc></StartTime><FrequencyChanges><FrequencyChange><Frequency dt:dt=""r8"">3312871</Frequency><Timestamp dt:dt=""r8"">15422129601</Timestamp><Current dt:dt=""r8"">0</Current><DateUtc dt:dt=""string"">2022-10-27T09:12:13Z</DateUtc></FrequencyChange></FrequencyChanges></Clock>\n";TMS_Ibrahim-43-2;75.030;1.0.0.561;1;;-1757077764;2.0.10.242;2.0.10.242;10-27-2022;27/10/2022 09:12;11:12:13;2.0.10.147;0;;-999999;16;11651;0;1;3296;14947;1;1;1;2;1;1;1;BlockProcFischi;BlockList;1;150;0;;-999999;13;15948;0;1;1453;17401;1;1;1;1;ProcFischi1;ListBlockFischi;13;1;2;0;0;5;Pr3_B;225;1;op;5;2;2;1;13;1;0;TrialProc;840;710;Pr3_B;100;1808;1708;ListFischi1;0;;2;203;107061;8;15;1837;108898;413;1;1837;1;260;339;1424;1;1
TMS_Ibrahim;43;2;"<?xml version=""1.0""?>\n<Clock xmlns:dt=""urn:schemas-microsoft-com:datatypes""><Description dt:dt=""string"">E-Prime Primary Realtime Clock</Description><StartTime><Timestamp dt:dt=""int"">0</Timestamp><DateUtc dt:dt=""string"">2022-10-27T09:12:13Z</DateUtc></StartTime><FrequencyChanges><FrequencyChange><Frequency dt:dt=""r8"">3312871</Frequency><Timestamp dt:dt=""r8"">15422129601</Timestamp><Current dt:dt=""r8"">0</Current><DateUtc dt:dt=""string"">2022-10-27T09:12:13Z</DateUtc></FrequencyChange></FrequencyChanges></Clock>\n";TMS_Ibrahim-43-2;75.030;1.0.0.561;1;;-1757077764;2.0.10.242;2.0.10.242;10-27-2022;27/10/2022 09:12;11:12:13;2.0.10.147;0;;-999999;16;11651;0;1;3296;14947;1;1;1;2;1;1;1;BlockProcFischi;BlockList;1;150;0;;-999999;13;15948;0;1;1453;17401;1;1;1;1;ProcFischi1;ListBlockFischi;14;0;2;1;0;3;Prmod_B;;3;ug;5;2;31;1;14;3;1;TrialProc;1038;1319;Prmod_B;5;1647;1652;ListFischi1;0;;2;201;114183;16;153;2139;116322;379;1;1675;1;264;566;1296;1;0
TMS_Ibrahim;43;2;"<?xml version=""1.0""?>\n<Clock xmlns:dt=""urn:schemas-microsoft-com:datatypes""><Description dt:dt=""string"">E-Prime Primary Realtime Clock</Description><StartTime><Timestamp dt:dt=""int"">0</Timestamp><DateUtc dt:dt=""string"">2022-10-27T09:12:13Z</DateUtc></StartTime><FrequencyChanges><FrequencyChange><Frequency dt:dt=""r8"">3312871</Frequency><Timestamp dt:dt=""r8"">15422129601</Timestamp><Current dt:dt=""r8"">0</Current><DateUtc dt:dt=""string"">2022-10-27T09:12:13Z</DateUtc></FrequencyChange></FrequencyChanges></Clock>\n";TMS_Ibrahim-43-2;75.030;1.0.0.561;1;;-1757077764;2.0.10.242;2.0.10.242;10-27-2022;27/10/2022 09:12;11:12:13;2.0.10.147;0;;-999999;16;11651;0;1;3296;14947;1;1;1;2;1;1;1;BlockProcFischi;BlockList;1;150;0;;-999999;13;15948;0;1;1453;17401;1;1;1;1;ProcFischi1;ListBlockFischi;15;1;1;0;0;5;Po4_B;200;4;ug;5;2;51;1;15;4;1;TrialProc;1017;1336;Po4_B;163;1546;1709;ListFischi1;0;;2;203;121055;8;15;1571;122626;435;1;1571;1;303;354;1136;1;1
TMS_Ibrahim;43;2;"<?xml version=""1.0""?>\n<Clock xmlns:dt=""urn:schemas-microsoft-com:datatypes""><Description dt:dt=""string"">E-Prime Primary Realtime Clock</Description><StartTime><Timestamp dt:dt=""int"">0</Timestamp><DateUtc dt:dt=""string"">2022-10-27T09:12:13Z</DateUtc></StartTime><FrequencyChanges><FrequencyChange><Frequency dt:dt=""r8"">3312871</Frequency><Timestamp dt:dt=""r8"">15422129601</Timestamp><Current dt:dt=""r8"">0</Current><DateUtc dt:dt=""string"">2022-10-27T09:12:13Z</DateUtc></FrequencyChange></FrequencyChanges></Clock>\n";TMS_Ibrahim-43-2;75.030;1.0.0.561;1;;-1757077764;2.0.10.242;2.0.10.242;10-27-2022;27/10/2022 09:12;11:12:13;2.0.10.147;0;;-999999;16;11651;0;1;3296;14947;1;1;1;2;1;1;1;BlockProcFischi;BlockList;1;150;0;;-999999;13;15948;0;1;1453;17401;1;1;1;1;ProcFischi1;ListBlockFischi;16;1;1;0;0;5;Po3_B;175;4;ug;5;2;50;1;16;4;1;TrialProc;874;1317;Po3_B;86;1498;1584;ListFischi1;0;;2;201;128352;15;155;1746;130098;323;1;1522;1;941;536;1199;1;1
TMS_Ibrahim;43;2;"<?xml version=""1.0""?>\n<Clock xmlns:dt=""urn:schemas-microsoft-com:datatypes""><Description dt:dt=""string"">E-Prime Primary Realtime Clock</Description><StartTime><Timestamp dt:dt=""int"">0</Timestamp><DateUtc dt:dt=""string"">2022-10-27T09:12:13Z</DateUtc></StartTime><FrequencyChanges><FrequencyChange><Frequency dt:dt=""r8"">3312871</Frequency><Timestamp dt:dt=""r8"">15422129601</Timestamp><Current dt:dt=""r8"">0</Current><DateUtc dt:dt=""string"">2022-10-27T09:12:13Z</DateUtc></FrequencyChange></FrequencyChanges></Clock>\n";TMS_Ibrahim-43-2;75.030;1.0.0.561;1;;-1757077764;2.0.10.242;2.0.10.242;10-27-2022;27/10/2022 09:12;11:12:13;2.0.10.147;0;;-999999;16;11651;0;1;3296;14947;1;1;1;2;1;1;1;BlockProcFischi;BlockList;1;150;0;;-999999;13;15948;0;1;1453;17401;1;1;1;1;ProcFischi1;ListBlockFischi;17;1;1;0;0;5;Po3_B;150;4;ug;5;2;60;1;17;4;1;TrialProc;692;1311;Po3_B;73;1504;1578;ListFischi1;0;;2;203;135701;10;15;1533;137234;381;1;1533;1;756;400;1152;1;1
TMS_Ibrahim;43;2;"<?xml version=""1.0""?>\n<Clock xmlns:dt=""urn:schemas-microsoft-com:datatypes""><Description dt:dt=""string"">E-Prime Primary Realtime Clock</Description><StartTime><Timestamp dt:dt=""int"">0</Timestamp><DateUtc dt:dt=""string"">2022-10-27T09:12:13Z</DateUtc></StartTime><FrequencyChanges><FrequencyChange><Frequency dt:dt=""r8"">3312871</Frequency><Timestamp dt:dt=""r8"">15422129601</Timestamp><Current dt:dt=""r8"">0</Current><DateUtc dt:dt=""string"">2022-10-27T09:12:13Z</DateUtc></FrequencyChange></FrequencyChanges></Clock>\n";TMS_Ibrahim-43-2;75.030;1.0.0.561;1;;-1757077764;2.0.10.242;2.0.10.242;10-27-2022;27/10/2022 09:12;11:12:13;2.0.10.147;0;;-999999;16;11651;0;1;3296;14947;1;1;1;2;1;1;1;BlockProcFischi;BlockList;1;150;0;;-999999;13;15948;0;1;1453;17401;1;1;1;1;ProcFischi1;ListBlockFischi;18;1;1;0;0;5;Po2_B;125;4;ug;5;2;59;1;18;4;1;TrialProc;856;1578;Po2_B;168;1636;1803;ListFischi1;0;;2;203;143178;10;155;2311;145489;231;1;1671;1;1336;516;1440;1;1
TMS_Ibrahim;43;2;"<?xml version=""1.0""?>\n<Clock xmlns:dt=""urn:schemas-microsoft-com:datatypes""><Description dt:dt=""string"">E-Prime Primary Realtime Clock</Description><StartTime><Timestamp dt:dt=""int"">0</Timestamp><DateUtc dt:dt=""string"">2022-10-27T09:12:13Z</DateUtc></StartTime><FrequencyChanges><FrequencyChange><Frequency dt:dt=""r8"">3312871</Frequency><Timestamp dt:dt=""r8"">15422129601</Timestamp><Current dt:dt=""r8"">0</Current><DateUtc dt:dt=""string"">2022-10-27T09:12:13Z</DateUtc></FrequencyChange></FrequencyChanges></Clock>\n";TMS_Ibrahim-43-2;75.030;1.0.0.561;1;;-1757077764;2.0.10.242;2.0.10.242;10-27-2022;27/10/2022 09:12;11:12:13;2.0.10.147;0;;-999999;16;11651;0;1;3296;14947;1;1;1;2;1;1;1;BlockProcFischi;BlockList;1;150;0;;-999999;13;15948;0;1;1453;17401;1;1;1;1;ProcFischi1;ListBlockFischi;19;1;2;0;0;3;Pr5_B;175;3;ug;3;2;30;1;19;3;1;TrialProc;500;677;Pr5_B;57;1333;1276;ListFischi1;0;;2;201;150131;14;13;1358;151489;382;1;1358;1;2952;309;976;1;1
TMS_Ibrahim;43;2;"<?xml version=""1.0""?>\n<Clock xmlns:dt=""urn:schemas-microsoft-com:datatypes""><Description dt:dt=""string"">E-Prime Primary Realtime Clock</Description><StartTime><Timestamp dt:dt=""int"">0</Timestamp><DateUtc dt:dt=""string"">2022-10-27T09:12:13Z</DateUtc></StartTime><FrequencyChanges><FrequencyChange><Frequency dt:dt=""r8"">3312871</Frequency><Timestamp dt:dt=""r8"">15422129601</Timestamp><Current dt:dt=""r8"">0</Current><DateUtc dt:dt=""string"">2022-10-27T09:12:13Z</DateUtc></FrequencyChange></FrequencyChanges></Clock>\n";TMS_Ibrahim-43-2;75.030;1.0.0.561;1;;-1757077764;2.0.10.242;2.0.10.242;10-27-2022;27/10/2022 09:12;11:12:13;2.0.10.147;0;;-999999;16;11651;0;1;3296;14947;1;1;1;2;1;1;1;BlockProcFischi;BlockList;1;150;0;;-999999;13;15948;0;1;1453;17401;1;1;1;1;ProcFischi1;ListBlockFischi;20;1;2;0;0;3;Pr4_B;150;3;ug;3;2;24;1;20;3;1;TrialProc;585;675;Pr4_B;203;1451;1248;ListFischi1;0;;2;203;157169;14;13;1472;158641;320;1;1472;1;384;215;1152;1;1
TMS_Ibrahim;43;2;"<?xml version=""1.0""?>\n<Clock xmlns:dt=""urn:schemas-microsoft-com:datatypes""><Description dt:dt=""string"">E-Prime Primary Realtime Clock</Description><StartTime><Timestamp dt:dt=""int"">0</Timestamp><DateUtc dt:dt=""string"">2022-10-27T09:12:13Z</DateUtc></StartTime><FrequencyChanges><FrequencyChange><Frequency dt:dt=""r8"">3312871</Frequency><Timestamp dt:dt=""r8"">15422129601</Timestamp><Current dt:dt=""r8"">0</Current><DateUtc dt:dt=""string"">2022-10-27T09:12:13Z</DateUtc></FrequencyChange></FrequencyChanges></Clock>\n";TMS_Ibrahim-43-2;75.030;1.0.0.561;1;;-1757077764;2.0.10.242;2.0.10.242;10-27-2022;27/10/2022 09:12;11:12:13;2.0.10.147;0;;-999999;16;11651;0;1;3296;14947;1;1;1;2;1;1;1;BlockProcFischi;BlockList;1;150;0;;-999999;13;15948;0;1;1453;17401;1;1;1;1;ProcFischi1;ListBlockFischi;21;1;2;0;0;5;Pr2_B;200;1;op;5;2;1;1;21;1;0;TrialProc;631;716;Pr2_B;296;1546;1251;ListFischi1;0;;2;201;164405;15;15;1580;165985;460;1;1580;1;878;311;1120;1;1
TMS_Ibrahim;43;2;"<?xml version=""1.0""?>\n<Clock xmlns:dt=""urn:schemas-microsoft-com:datatypes""><Description dt:dt=""string"">E-Prime Primary Realtime Clock</Description><StartTime><Timestamp dt:dt=""int"">0</Timestamp><DateUtc dt:dt=""string"">2022-10-27T09:12:13Z</DateUtc></StartTime><FrequencyChanges><FrequencyChange><Frequency dt:dt=""r8"">3312871</Frequency><Timestamp dt:dt=""r8"">15422129601</Timestamp><Current dt:dt=""r8"">0</Current><DateUtc dt:dt=""string"">2022-10-27T09:12:13Z</DateUtc></FrequencyChange></FrequencyChanges></Clock>\n";TMS_Ibrahim-43-2;75.030;1.0.0.561;1;;-1757077764;2.0.10.242;2.0.10.242;10-27-2022;27/10/2022 09:12;11:12:13;2.0.10.147;0;;-999999;16;11651;0;1;3296;14947;1;1;1;2;1;1;1;BlockProcFischi;BlockList;1;150;0;;-999999;13;15948;0;1;1453;17401;1;1;1;1;ProcFischi1;ListBlockFischi;22;1;1;0;1;5;Po3_B;125;4;ug;5;2;55;1;22;4;1;TrialProc;1279;1313;Po3_B;158;1420;1579;ListFischi1;0;;2;203;171392;12;15;1440;172832;336;1;1440;1;598;246;1104;1;1
TMS_Ibrahim;43;2;"<?xml version=""1.0""?>\n<Clock xmlns:dt=""urn:schemas-microsoft-com:datatypes""><Description dt:dt=""string"">E-Prime Primary Realtime Clock</Description><StartTime><Timestamp dt:dt=""int"">0</Timestamp><DateUtc dt:dt=""string"">2022-10-27T09:12:13Z</DateUtc></StartTime><FrequencyChanges><FrequencyChange><Frequency dt:dt=""r8"">3312871</Frequency><Timestamp dt:dt=""r8"">15422129601</Timestamp><Current dt:dt=""r8"">0</Current><DateUtc dt:dt=""string"">2022-10-27T09:12:13Z</DateUtc></FrequencyChange></FrequencyChanges></Clock>\n";TMS_Ibrahim-43-2;75.030;1.0.0.561;1;;-1757077764;2.0.10.242;2.0.10.242;10-27-2022;27/10/2022 09:12;11:12:13;2.0.10.147;0;;-999999;16;11651;0;1;3296;14947;1;1;1;2;1;1;1;BlockProcFischi;BlockList;1;150;0;;-999999;13;15948;0;1;1453;17401;1;1;1;1;ProcFischi1;ListBlockFischi;23;1;2;0;1;5;Pr3_B;200;1;op;5;2;7;1;23;1;0;TrialProc;874;715;Pr3_B;29;1743;1713;ListFischi1;0;;2;203;179081;13;15;1767;180848;457;1;1767;1;629;502;1310;1;1
TMS_Ibrahim;43;2;"<?xml version=""1.0""?>\n<Clock xmlns:dt=""urn:schemas-microsoft-com:datatypes""><Description dt:dt=""string"">E-Prime Primary Realtime Clock</Description><StartTime><Timestamp dt:dt=""int"">0</Timestamp><DateUtc dt:dt=""string"">2022-10-27T09:12:13Z</DateUtc></StartTime><FrequencyChanges><FrequencyChange><Frequency dt:dt=""r8"">3312871</Frequency><Timestamp dt:dt=""r8"">15422129601</Timestamp><Current dt:dt=""r8"">0</Current><DateUtc dt:dt=""string"">2022-10-27T09:12:13Z</DateUtc></FrequencyChange></FrequencyChanges></Clock>\n";TMS_Ibrahim-43-2;75.030;1.0.0.561;1;;-1757077764;2.0.10.242;2.0.10.242;10-27-2022;27/10/2022 09:12;11:12:13;2.0.10.147;0;;-999999;16;11651;0;1;3296;14947;1;1;1;2;1;1;1;BlockProcFischi;BlockList;1;150;0;;-999999;13;15948;0;1;1453;17401;1;1;1;1;ProcFischi1;ListBlockFischi;24;1;2;0;0;5;Pr5_B;175;1;op;5;2;4;1;24;1;0;TrialProc;818;673;Pr5_B;352;1624;1273;ListFischi1;0;;2;201;186146;12;15;1646;187792;334;1;1646;1;706;460;1312;1;1
TMS_Ibrahim;43;2;"<?xml version=""1.0""?>\n<Clock xmlns:dt=""urn:schemas-microsoft-com:datatypes""><Description dt:dt=""string"">E-Prime Primary Realtime Clock</Description><StartTime><Timestamp dt:dt=""int"">0</Timestamp><DateUtc dt:dt=""string"">2022-10-27T09:12:13Z</DateUtc></StartTime><FrequencyChanges><FrequencyChange><Frequency dt:dt=""r8"">3312871</Frequency><Timestamp dt:dt=""r8"">15422129601</Timestamp><Current dt:dt=""r8"">0</Current><DateUtc dt:dt=""string"">2022-10-27T09:12:13Z</DateUtc></FrequencyChange></FrequencyChanges></Clock>\n";TMS_Ibrahim-43-2;75.030;1.0.0.561;1;;-1757077764;2.0.10.242;2.0.10.242;10-27-2022;27/10/2022 09:12;11:12:13;2.0.10.147;0;;-999999;16;11651;0;1;3296;14947;1;1;1;2;1;1;1;BlockProcFischi;BlockList;1;150;0;;-999999;13;15948;0;1;1453;17401;1;1;1;1;ProcFischi1;ListBlockFischi;25;0;2;0;1;3;Pr5_B;;3;ug;1;2;25;1;25;3;1;TrialProc;1912;671;Pr5_B;352;1624;1271;ListFischi1;0;;2;203;192853;9;131;4379;197232;379;1;1;1;670;408;-378;1;0
TMS_Ibrahim;43;2;"<?xml version=""1.0""?>\n<Clock xmlns:dt=""urn:schemas-microsoft-com:datatypes""><Description dt:dt=""string"">E-Prime Primary Realtime Clock</Description><StartTime><Timestamp dt:dt=""int"">0</Timestamp><DateUtc dt:dt=""string"">2022-10-27T09:12:13Z</DateUtc></StartTime><FrequencyChanges><FrequencyChange><Frequency dt:dt=""r8"">3312871</Frequency><Timestamp dt:dt=""r8"">15422129601</Timestamp><Current dt:dt=""r8"">0</Current><DateUtc dt:dt=""string"">2022-10-27T09:12:13Z</DateUtc></FrequencyChange></FrequencyChanges></Clock>\n";TMS_Ibrahim-43-2;75.030;1.0.0.561;1;;-1757077764;2.0.10.242;2.0.10.242;10-27-2022;27/10/2022 09:12;11:12:13;2.0.10.147;0;;-999999;16;11651;0;1;3296;14947;1;1;1;2;1;1;1;BlockProcFischi;BlockList;1;150;0;;-999999;13;15948;0;1;1453;17401;1;1;1;1;ProcFischi1;ListBlockFischi;26;1;1;0;2;5;Po5_B;125;4;ug;5;2;52;1;26;4;1;TrialProc;708;977;Po5_B;169;1639;1470;ListFischi1;0;;3;201;199157;9;15;1658;200815;427;1;1658;1;1092;390;1231;1;1
TMS_Ibrahim;43;2;"<?xml version=""1.0""?>\n<Clock xmlns:dt=""urn:schemas-microsoft-com:datatypes""><Description dt:dt=""string"">E-Prime Primary Realtime Clock</Description><StartTime><Timestamp dt:dt=""int"">0</Timestamp><DateUtc dt:dt=""string"">2022-10-27T09:12:13Z</DateUtc></StartTime><FrequencyChanges><FrequencyChange><Frequency dt:dt=""r8"">3312871</Frequency><Timestamp dt:dt=""r8"">15422129601</Timestamp><Current dt:dt=""r8"">0</Current><DateUtc dt:dt=""string"">2022-10-27T09:12:13Z</DateUtc></FrequencyChange></FrequencyChanges></Clock>\n";TMS_Ibrahim-43-2;75.030;1.0.0.561;1;;-1757077764;2.0.10.242;2.0.10.242;10-27-2022;27/10/2022 09:12;11:12:13;2.0.10.147;0;;-999999;16;11651;0;1;3296;14947;1;1;1;2;1;1;1;BlockProcFischi;BlockList;1;150;0;;-999999;13;15948;0;1;1453;17401;1;1;1;1;ProcFischi1;ListBlockFischi;27;1;2;0;1;3;Pr4_B;150;3;ug;3;2;29;1;27;3;1;TrialProc;620;677;Pr4_B;144;1394;1250;ListFischi1;0;;2;203;206628;15;13;1419;208047;331;1;1419;1;752;466;1088;1;1
TMS_Ibrahim;43;2;"<?xml version=""1.0""?>\n<Clock xmlns:dt=""urn:schemas-microsoft-com:datatypes""><Description dt:dt=""string"">E-Prime Primary Realtime Clock</Description><StartTime><Timestamp dt:dt=""int"">0</Timestamp><DateUtc dt:dt=""string"">2022-10-27T09:12:13Z</DateUtc></StartTime><FrequencyChanges><FrequencyChange><Frequency dt:dt=""r8"">3312871</Frequency><Timestamp dt:dt=""r8"">15422129601</Timestamp><Current dt:dt=""r8"">0</Current><DateUtc dt:dt=""string"">2022-10-27T09:12:13Z</DateUtc></FrequencyChange></FrequencyChanges></Clock>\n";TMS_Ibrahim-43-2;75.030;1.0.0.561;1;;-1757077764;2.0.10.242;2.0.10.242;10-27-2022;27/10/2022 09:12;11:12:13;2.0.10.147;0;;-999999;16;11651;0;1;3296;14947;1;1;1;2;1;1;1;BlockProcFischi;BlockList;1;150;0;;-999999;13;15948;0;1;1453;17401;1;1;1;1;ProcFischi1;ListBlockFischi;28;0;1;1;0;5;Pomod_B;;4;ug;1;2;63;1;28;4;1;TrialProc;3066;1320;Pomod_B;144;1394;1680;ListFischi1;0;;2;201;213942;18;15;2153;216095;297;1;1;1;333;333;-296;1;0
TMS_Ibrahim;43;2;"<?xml version=""1.0""?>\n<Clock xmlns:dt=""urn:schemas-microsoft-com:datatypes""><Description dt:dt=""string"">E-Prime Primary Realtime Clock</Description><StartTime><Timestamp dt:dt=""int"">0</Timestamp><DateUtc dt:dt=""string"">2022-10-27T09:12:13Z</DateUtc></StartTime><FrequencyChanges><FrequencyChange><Frequency dt:dt=""r8"">3312871</Frequency><Timestamp dt:dt=""r8"">15422129601</Timestamp><Current dt:dt=""r8"">0</Current><DateUtc dt:dt=""string"">2022-10-27T09:12:13Z</DateUtc></FrequencyChange></FrequencyChanges></Clock>\n";TMS_Ibrahim-43-2;75.030;1.0.0.561;1;;-1757077764;2.0.10.242;2.0.10.242;10-27-2022;27/10/2022 09:12;11:12:13;2.0.10.147;0;;-999999;16;11651;0;1;3296;14947;1;1;1;2;1;1;1;BlockProcFischi;BlockList;1;150;0;;-999999;13;15948;0;1;1453;17401;1;1;1;1;ProcFischi1;ListBlockFischi;29;1;1;0;0;5;Po4_B;150;4;ug;5;2;56;1;29;4;1;TrialProc;1274;1355;Po4_B;114;1601;1714;ListFischi1;0;;2;203;220958;13;15;1633;222591;497;1;1633;1;114;589;1136;1;1
TMS_Ibrahim;43;2;"<?xml version=""1.0""?>\n<Clock xmlns:dt=""urn:schemas-microsoft-com:datatypes""><Description dt:dt=""string"">E-Prime Primary Realtime Clock</Description><StartTime><Timestamp dt:dt=""int"">0</Timestamp><DateUtc dt:dt=""string"">2022-10-27T09:12:13Z</DateUtc></StartTime><FrequencyChanges><FrequencyChange><Frequency dt:dt=""r8"">3312871</Frequency><Timestamp dt:dt=""r8"">15422129601</Timestamp><Current dt:dt=""r8"">0</Current><DateUtc dt:dt=""string"">2022-10-27T09:12:13Z</DateUtc></FrequencyChange></FrequencyChanges></Clock>\n";TMS_Ibrahim-43-2;75.030;1.0.0.561;1;;-1757077764;2.0.10.242;2.0.10.242;10-27-2022;27/10/2022 09:12;11:12:13;2.0.10.147;0;;-999999;16;11651;0;1;3296;14947;1;1;1;2;1;1;1;BlockProcFischi;BlockList;1;150;0;;-999999;13;15948;0;1;1453;17401;1;1;1;1;ProcFischi1;ListBlockFischi;30;1;1;0;0;3;Po8_B;175;2;op;3;2;42;1;30;2;0;TrialProc;835;1247;Po8_B;254;1833;1580;ListFischi1;0;;2;201;228703;12;13;1855;230558;368;1;1855;1;242;436;1487;1;1
TMS_Ibrahim;43;2;"<?xml version=""1.0""?>\n<Clock xmlns:dt=""urn:schemas-microsoft-com:datatypes""><Description dt:dt=""string"">E-Prime Primary Realtime Clock</Description><StartTime><Timestamp dt:dt=""int"">0</Timestamp><DateUtc dt:dt=""string"">2022-10-27T09:12:13Z</DateUtc></StartTime><FrequencyChanges><FrequencyChange><Frequency dt:dt=""r8"">3312871</Frequency><Timestamp dt:dt=""r8"">15422129601</Timestamp><Current dt:dt=""r8"">0</Current><DateUtc dt:dt=""string"">2022-10-27T09:12:13Z</DateUtc></FrequencyChange></FrequencyChanges></Clock>\n";TMS_Ibrahim-43-2;75.030;1.0.0.561;1;;-1757077764;2.0.10.242;2.0.10.242;10-27-2022;27/10/2022 09:12;11:12:13;2.0.10.147;0;;-999999;16;11651;0;1;3296;14947;1;1;1;2;1;1;1;BlockProcFischi;BlockList;1;150;0;;-999999;13;15948;0;1;1453;17401;1;1;1;1;ProcFischi1;ListBlockFischi;31;1;2;0;1;3;Pr2_B;150;3;ug;3;2;27;1;31;3;1;TrialProc;872;709;Pr2_B;172;1415;1243;ListFischi1;0;;2;203;235877;8;133;1593;237470;569;1;1449;1;650;275;880;1;1
TMS_Ibrahim;43;2;"<?xml version=""1.0""?>\n<Clock xmlns:dt=""urn:schemas-microsoft-com:datatypes""><Description dt:dt=""string"">E-Prime Primary Realtime Clock</Description><StartTime><Timestamp dt:dt=""int"">0</Timestamp><DateUtc dt:dt=""string"">2022-10-27T09:12:13Z</DateUtc></StartTime><FrequencyChanges><FrequencyChange><Frequency dt:dt=""r8"">3312871</Frequency><Timestamp dt:dt=""r8"">15422129601</Timestamp><Current dt:dt=""r8"">0</Current><DateUtc dt:dt=""string"">2022-10-27T09:12:13Z</DateUtc></FrequencyChange></FrequencyChanges></Clock>\n";TMS_Ibrahim-43-2;75.030;1.0.0.561;1;;-1757077764;2.0.10.242;2.0.10.242;10-27-2022;27/10/2022 09:12;11:12:13;2.0.10.147;0;;-999999;16;11651;0;1;3296;14947;1;1;1;2;1;1;1;BlockProcFischi;BlockList;1;150;0;;-999999;13;15948;0;1;1453;17401;1;1;1;1;ProcFischi1;ListBlockFischi;32;1;2;1;1;5;Prmod_B;175;1;op;5;2;15;1;32;1;0;TrialProc;716;1307;Prmod_B;169;1810;1641;ListFischi1;0;;2;201;243064;6;15;1830;244894;470;1;1830;1;330;313;1360;1;1
TMS_Ibrahim;43;2;"<?xml version=""1.0""?>\n<Clock xmlns:dt=""urn:schemas-microsoft-com:datatypes""><Description dt:dt=""string"">E-Prime Primary Realtime Clock</Description><StartTime><Timestamp dt:dt=""int"">0</Timestamp><DateUtc dt:dt=""string"">2022-10-27T09:12:13Z</DateUtc></StartTime><FrequencyChanges><FrequencyChange><Frequency dt:dt=""r8"">3312871</Frequency><Timestamp dt:dt=""r8"">15422129601</Timestamp><Current dt:dt=""r8"">0</Current><DateUtc dt:dt=""string"">2022-10-27T09:12:13Z</DateUtc></FrequencyChange></FrequencyChanges></Clock>\n";TMS_Ibrahim-43-2;75.030;1.0.0.561;1;;-1757077764;2.0.10.242;2.0.10.242;10-27-2022;27/10/2022 09:12;11:12:13;2.0.10.147;0;;-999999;16;11651;0;1;3296;14947;1;1;1;2;1;1;1;BlockProcFischi;BlockList;1;150;0;;-999999;13;15948;0;1;1453;17401;1;1;1;1;ProcFischi1;ListBlockFischi;33;1;1;0;1;3;Po3_B;175;2;op;3;2;39;1;33;2;0;TrialProc;774;1311;Po3_B;112;1689;1577;ListFischi1;0;;2;203;250417;9;133;2173;252590;461;1;1709;1;735;300;1248;1;1
TMS_Ibrahim;43;2;"<?xml version=""1.0""?>\n<Clock xmlns:dt=""urn:schemas-microsoft-com:datatypes""><Description dt:dt=""string"">E-Prime Primary Realtime Clock</Description><StartTime><Timestamp dt:dt=""int"">0</Timestamp><DateUtc dt:dt=""string"">2022-10-27T09:12:13Z</DateUtc></StartTime><FrequencyChanges><FrequencyChange><Frequency dt:dt=""r8"">3312871</Frequency><Timestamp dt:dt=""r8"">15422129601</Timestamp><Current dt:dt=""r8"">0</Current><DateUtc dt:dt=""string"">2022-10-27T09:12:13Z</DateUtc></FrequencyChange></FrequencyChanges></Clock>\n";TMS_Ibrahim-43-2;75.030;1.0.0.561;1;;-1757077764;2.0.10.242;2.0.10.242;10-27-2022;27/10/2022 09:12;11:12:13;2.0.10.147;0;;-999999;16;11651;0;1;3296;14947;1;1;1;2;1;1;1;BlockProcFischi;BlockList;1;150;0;;-999999;13;15948;0;1;1453;17401;1;1;1;1;ProcFischi1;ListBlockFischi;34;0;2;0;1;5;Pr4_B;;1;op;1;2;13;1;34;1;0;TrialProc;1302;672;Pr4_B;112;1689;1244;ListFischi1;0;;2;203;257254;10;15;1624;258878;280;1;1;1;263;343;-279;1;0
TMS_Ibrahim;43;2;"<?xml version=""1.0""?>\n<Clock xmlns:dt=""urn:schemas-microsoft-com:datatypes""><Description dt:dt=""string"">E-Prime Primary Realtime Clock</Description><StartTime><Timestamp dt:dt=""int"">0</Timestamp><DateUtc dt:dt=""string"">2022-10-27T09:12:13Z</DateUtc></StartTime><FrequencyChanges><FrequencyChange><Frequency dt:dt=""r8"">3312871</Frequency><Timestamp dt:dt=""r8"">15422129601</Timestamp><Current dt:dt=""r8"">0</Current><DateUtc dt:dt=""string"">2022-10-27T09:12:13Z</DateUtc></FrequencyChange></FrequencyChanges></Clock>\n";TMS_Ibrahim-43-2;75.030;1.0.0.561;1;;-1757077764;2.0.10.242;2.0.10.242;10-27-2022;27/10/2022 09:12;11:12:13;2.0.10.147;0;;-999999;16;11651;0;1;3296;14947;1;1;1;2;1;1;1;BlockProcFischi;BlockList;1;150;0;;-999999;13;15948;0;1;1453;17401;1;1;1;1;ProcFischi1;ListBlockFischi;35;1;2;0;1;3;Pr3_B;150;3;ug;3;2;28;1;35;3;1;TrialProc;1339;715;Pr3_B;64;1779;1715;ListFischi1;0;;2;201;264740;14;13;1801;266541;473;1;1801;1;535;253;1328;1;1
TMS_Ibrahim;43;2;"<?xml version=""1.0""?>\n<Clock xmlns:dt=""urn:schemas-microsoft-com:datatypes""><Description dt:dt=""string"">E-Prime Primary Realtime Clock</Description><StartTime><Timestamp dt:dt=""int"">0</Timestamp><DateUtc dt:dt=""string"">2022-10-27T09:12:13Z</DateUtc></StartTime><FrequencyChanges><FrequencyChange><Frequency dt:dt=""r8"">3312871</Frequency><Timestamp dt:dt=""r8"">15422129601</Timestamp><Current dt:dt=""r8"">0</Current><DateUtc dt:dt=""string"">2022-10-27T09:12:13Z</DateUtc></FrequencyChange></FrequencyChanges></Clock>\n";TMS_Ibrahim-43-2;75.030;1.0.0.561;1;;-1757077764;2.0.10.242;2.0.10.242;10-27-2022;27/10/2022 09:12;11:12:13;2.0.10.147;0;;-999999;16;11651;0;1;3296;14947;1;1;1;2;1;1;1;BlockProcFischi;BlockList;1;150;0;;-999999;13;15948;0;1;1453;17401;1;1;1;1;ProcFischi1;ListBlockFischi;36;1;2;1;1;5;Prmod_B;175;1;op;5;2;16;1;36;1;0;TrialProc;1051;1314;Prmod_B;458;2105;1646;ListFischi1;0;;2;203;272338;13;15;2139;274477;299;1;2139;1;743;325;1840;1;1
TMS_Ibrahim;43;2;"<?xml version=""1.0""?>\n<Clock xmlns:dt=""urn:schemas-microsoft-com:datatypes""><Description dt:dt=""string"">E-Prime Primary Realtime Clock</Description><StartTime><Timestamp dt:dt=""int"">0</Timestamp><DateUtc dt:dt=""string"">2022-10-27T09:12:13Z</DateUtc></StartTime><FrequencyChanges><FrequencyChange><Frequency dt:dt=""r8"">3312871</Frequency><Timestamp dt:dt=""r8"">15422129601</Timestamp><Current dt:dt=""r8"">0</Current><DateUtc dt:dt=""string"">2022-10-27T09:12:13Z</DateUtc></FrequencyChange></FrequencyChanges></Clock>\n";TMS_Ibrahim-43-2;75.030;1.0.0.561;1;;-1757077764;2.0.10.242;2.0.10.242;10-27-2022;27/10/2022 09:12;11:12:13;2.0.10.147;0;;-999999;16;11651;0;1;3296;14947;1;1;1;2;1;1;1;BlockProcFischi;BlockList;1;150;0;;-999999;13;15948;0;1;1453;17401;1;1;1;1;ProcFischi1;ListBlockFischi;37;1;2;0;0;3;Pr4_B;125;3;ug;3;2;19;1;37;3;1;TrialProc;1052;678;Pr4_B;108;1359;1252;ListFischi1;0;;2;201;279131;17;13;1394;280525;291;1;1394;1;340;379;1103;1;1
TMS_Ibrahim;43;2;"<?xml version=""1.0""?>\n<Clock xmlns:dt=""urn:schemas-microsoft-com:datatypes""><Description dt:dt=""string"">E-Prime Primary Realtime Clock</Description><StartTime><Timestamp dt:dt=""int"">0</Timestamp><DateUtc dt:dt=""string"">2022-10-27T09:12:13Z</DateUtc></StartTime><FrequencyChanges><FrequencyChange><Frequency dt:dt=""r8"">3312871</Frequency><Timestamp dt:dt=""r8"">15422129601</Timestamp><Current dt:dt=""r8"">0</Current><DateUtc dt:dt=""string"">2022-10-27T09:12:13Z</DateUtc></FrequencyChange></FrequencyChanges></Clock>\n";TMS_Ibrahim-43-2;75.030;1.0.0.561;1;;-1757077764;2.0.10.242;2.0.10.242;10-27-2022;27/10/2022 09:12;11:12:13;2.0.10.147;0;;-999999;16;11651;0;1;3296;14947;1;1;1;2;1;1;1;BlockProcFischi;BlockList;1;150;0;;-999999;13;15948;0;1;1453;17401;1;1;1;1;ProcFischi1;ListBlockFischi;38;1;1;0;0;3;Po2_B;150;2;op;3;2;38;1;38;2;0;TrialProc;936;1580;Po2_B;143;1663;1806;ListFischi1;0;;2;203;286348;11;13;1697;288045;322;1;1697;1;371;371;1375;1;1
TMS_Ibrahim;43;2;"<?xml version=""1.0""?>\n<Clock xmlns:dt=""urn:schemas-microsoft-com:datatypes""><Description dt:dt=""string"">E-Prime Primary Realtime Clock</Description><StartTime><Timestamp dt:dt=""int"">0</Timestamp><DateUtc dt:dt=""string"">2022-10-27T09:12:13Z</DateUtc></StartTime><FrequencyChanges><FrequencyChange><Frequency dt:dt=""r8"">3312871</Frequency><Timestamp dt:dt=""r8"">15422129601</Timestamp><Current dt:dt=""r8"">0</Current><DateUtc dt:dt=""string"">2022-10-27T09:12:13Z</DateUtc></FrequencyChange></FrequencyChanges></Clock>\n";TMS_Ibrahim-43-2;75.030;1.0.0.561;1;;-1757077764;2.0.10.242;2.0.10.242;10-27-2022;27/10/2022 09:12;11:12:13;2.0.10.147;0;;-999999;16;11651;0;1;3296;14947;1;1;1;2;1;1;1;BlockProcFischi;BlockList;1;150;0;;-999999;13;15948;0;1;1453;17401;1;1;1;1;ProcFischi1;ListBlockFischi;39;1;1;0;0;5;Po5_B;125;4;ug;5;2;62;1;39;4;1;TrialProc;2219;982;Po5_B;11;1486;1475;ListFischi1;0;;2;203;294021;15;15;1511;295532;391;1;1511;1;456;300;1120;1;1
TMS_Ibrahim;43;2;"<?xml version=""1.0""?>\n<Clock xmlns:dt=""urn:schemas-microsoft-com:datatypes""><Description dt:dt=""string"">E-Prime Primary Realtime Clock</Description><StartTime><Timestamp dt:dt=""int"">0</Timestamp><DateUtc dt:dt=""string"">2022-10-27T09:12:13Z</DateUtc></StartTime><FrequencyChanges><FrequencyChange><Frequency dt:dt=""r8"">3312871</Frequency><Timestamp dt:dt=""r8"">15422129601</Timestamp><Current dt:dt=""r8"">0</Current><DateUtc dt:dt=""string"">2022-10-27T09:12:13Z</DateUtc></FrequencyChange></FrequencyChanges></Clock>\n";TMS_Ibrahim-43-2;75.030;1.0.0.561;1;;-1757077764;2.0.10.242;2.0.10.242;10-27-2022;27/10/2022 09:12;11:12:13;2.0.10.147;0;;-999999;16;11651;0;1;3296;14947;1;1;1;2;1;1;1;BlockProcFischi;BlockList;1;150;0;;-999999;13;15948;0;1;1453;17401;1;1;1;1;ProcFischi1;ListBlockFischi;40;1;1;0;0;5;Po8_B;100;4;ug;5;2;58;1;40;4;1;TrialProc;1031;1247;Po8_B;29;1552;1581;ListFischi1;0;;2;201;301434;12;15;1586;303020;338;1;1586;1;299;419;1248;1;1
TMS_Ibrahim;43;2;"<?xml version=""1.0""?>\n<Clock xmlns:dt=""urn:schemas-microsoft-com:datatypes""><Description dt:dt=""string"">E-Prime Primary Realtime Clock</Description><StartTime><Timestamp dt:dt=""int"">0</Timestamp><DateUtc dt:dt=""string"">2022-10-27T09:12:13Z</DateUtc></StartTime><FrequencyChanges><FrequencyChange><Frequency dt:dt=""r8"">3312871</Frequency><Timestamp dt:dt=""r8"">15422129601</Timestamp><Current dt:dt=""r8"">0</Current><DateUtc dt:dt=""string"">2022-10-27T09:12:13Z</DateUtc></FrequencyChange></FrequencyChanges></Clock>\n";TMS_Ibrahim-43-2;75.030;1.0.0.561;1;;-1757077764;2.0.10.242;2.0.10.242;10-27-2022;27/10/2022 09:12;11:12:13;2.0.10.147;0;;-999999;16;11651;0;1;3296;14947;1;1;1;2;1;1;1;BlockProcFischi;BlockList;1;150;0;;-999999;13;15948;0;1;1453;17401;1;1;1;1;ProcFischi1;ListBlockFischi;41;0;1;1;0;5;Pomod_B;;4;ug;3;2;64;1;41;4;1;TrialProc;1027;1314;Pomod_B;180;1495;1675;ListFischi1;0;;2;203;308563;14;13;1529;310092;313;1;1529;1;504;424;1216;1;0
TMS_Ibrahim;43;2;"<?xml version=""1.0""?>\n<Clock xmlns:dt=""urn:schemas-microsoft-com:datatypes""><Description dt:dt=""string"">E-Prime Primary Realtime Clock</Description><StartTime><Timestamp dt:dt=""int"">0</Timestamp><DateUtc dt:dt=""string"">2022-10-27T09:12:13Z</DateUtc></StartTime><FrequencyChanges><FrequencyChange><Frequency dt:dt=""r8"">3312871</Frequency><Timestamp dt:dt=""r8"">15422129601</Timestamp><Current dt:dt=""r8"">0</Current><DateUtc dt:dt=""string"">2022-10-27T09:12:13Z</DateUtc></FrequencyChange></FrequencyChanges></Clock>\n";TMS_Ibrahim-43-2;75.030;1.0.0.561;1;;-1757077764;2.0.10.242;2.0.10.242;10-27-2022;27/10/2022 09:12;11:12:13;2.0.10.147;0;;-999999;16;11651;0;1;3296;14947;1;1;1;2;1;1;1;BlockProcFischi;BlockList;1;150;0;;-999999;13;15948;0;1;1453;17401;1;1;1;1;ProcFischi1;ListBlockFischi;42;0;2;0;2;5;Pr4_B;;1;op;1;2;3;1;42;1;0;TrialProc;2323;673;Pr4_B;180;1495;1245;ListFischi1;0;;2;201;315989;12;15;1639;317628;391;1;1;1;246;244;-390;1;0
TMS_Ibrahim;43;2;"<?xml version=""1.0""?>\n<Clock xmlns:dt=""urn:schemas-microsoft-com:datatypes""><Description dt:dt=""string"">E-Prime Primary Realtime Clock</Description><StartTime><Timestamp dt:dt=""int"">0</Timestamp><DateUtc dt:dt=""string"">2022-10-27T09:12:13Z</DateUtc></StartTime><FrequencyChanges><FrequencyChange><Frequency dt:dt=""r8"">3312871</Frequency><Timestamp dt:dt=""r8"">15422129601</Timestamp><Current dt:dt=""r8"">0</Current><DateUtc dt:dt=""string"">2022-10-27T09:12:13Z</DateUtc></FrequencyChange></FrequencyChanges></Clock>\n";TMS_Ibrahim-43-2;75.030;1.0.0.561;1;;-1757077764;2.0.10.242;2.0.10.242;10-27-2022;27/10/2022 09:12;11:12:13;2.0.10.147;0;;-999999;16;11651;0;1;3296;14947;1;1;1;2;1;1;1;BlockProcFischi;BlockList;1;150;0;;-999999;13;15948;0;1;1453;17401;1;1;1;1;ProcFischi1;ListBlockFischi;43;1;1;0;0;3;Po3_B;150;2;op;3;2;34;1;43;2;0;TrialProc;1282;1317;Po3_B;14;1570;1584;ListFischi1;0;;2;203;322836;15;13;1591;324427;392;1;1591;1;639;406;1199;1;1
TMS_Ibrahim;43;2;"<?xml version=""1.0""?>\n<Clock xmlns:dt=""urn:schemas-microsoft-com:datatypes""><Description dt:dt=""string"">E-Prime Primary Realtime Clock</Description><StartTime><Timestamp dt:dt=""int"">0</Timestamp><DateUtc dt:dt=""string"">2022-10-27T09:12:13Z</DateUtc></StartTime><FrequencyChanges><FrequencyChange><Frequency dt:dt=""r8"">3312871</Frequency><Timestamp dt:dt=""r8"">15422129601</Timestamp><Current dt:dt=""r8"">0</Current><DateUtc dt:dt=""string"">2022-10-27T09:12:13Z</DateUtc></FrequencyChange></FrequencyChanges></Clock>\n";TMS_Ibrahim-43-2;75.030;1.0.0.561;1;;-1757077764;2.0.10.242;2.0.10.242;10-27-2022;27/10/2022 09:12;11:12:13;2.0.10.147;0;;-999999;16;11651;0;1;3296;14947;1;1;1;2;1;1;1;BlockProcFischi;BlockList;1;150;0;;-999999;13;15948;0;1;1453;17401;1;1;1;1;ProcFischi1;ListBlockFischi;44;1;2;0;0;3;Pr8_B;125;3;ug;3;2;21;1;44;3;1;TrialProc;1043;722;Pr8_B;53;1788;1736;ListFischi1;0;;2;201;330242;6;13;1817;332059;329;1;1817;1;655;508;1488;1;1
TMS_Ibrahim;43;2;"<?xml version=""1.0""?>\n<Clock xmlns:dt=""urn:schemas-microsoft-com:datatypes""><Description dt:dt=""string"">E-Prime Primary Realtime Clock</Description><StartTime><Timestamp dt:dt=""int"">0</Timestamp><DateUtc dt:dt=""string"">2022-10-27T09:12:13Z</DateUtc></StartTime><FrequencyChanges><FrequencyChange><Frequency dt:dt=""r8"">3312871</Frequency><Timestamp dt:dt=""r8"">15422129601</Timestamp><Current dt:dt=""r8"">0</Current><DateUtc dt:dt=""string"">2022-10-27T09:12:13Z</DateUtc></FrequencyChange></FrequencyChanges></Clock>\n";TMS_Ibrahim-43-2;75.030;1.0.0.561;1;;-1757077764;2.0.10.242;2.0.10.242;10-27-2022;27/10/2022 09:12;11:12:13;2.0.10.147;0;;-999999;16;11651;0;1;3296;14947;1;1;1;2;1;1;1;BlockProcFischi;BlockList;1;150;0;;-999999;13;15948;0;1;1453;17401;1;1;1;1;ProcFischi1;ListBlockFischi;45;1;1;0;0;3;Po2_B;125;2;op;3;2;33;1;45;2;0;TrialProc;1246;1578;Po2_B;92;1895;1804;ListFischi1;0;;2;203;337596;10;13;1919;339515;495;1;1919;1;593;512;1424;1;1
TMS_Ibrahim;43;2;"<?xml version=""1.0""?>\n<Clock xmlns:dt=""urn:schemas-microsoft-com:datatypes""><Description dt:dt=""string"">E-Prime Primary Realtime Clock</Description><StartTime><Timestamp dt:dt=""int"">0</Timestamp><DateUtc dt:dt=""string"">2022-10-27T09:12:13Z</DateUtc></StartTime><FrequencyChanges><FrequencyChange><Frequency dt:dt=""r8"">3312871</Frequency><Timestamp dt:dt=""r8"">15422129601</Timestamp><Current dt:dt=""r8"">0</Current><DateUtc dt:dt=""string"">2022-10-27T09:12:13Z</DateUtc></FrequencyChange></FrequencyChanges></Clock>\n";TMS_Ibrahim-43-2;75.030;1.0.0.561;1;;-1757077764;2.0.10.242;2.0.10.242;10-27-2022;27/10/2022 09:12;11:12:13;2.0.10.147;0;;-999999;16;11651;0;1;3296;14947;1;1;1;2;1;1;1;BlockProcFischi;BlockList;1;150;0;;-999999;13;15948;0;1;1453;17401;1;1;1;1;ProcFischi1;ListBlockFischi;46;1;1;0;0;3;Po2_B;100;2;op;3;2;43;1;46;2;0;TrialProc;3134;1579;Po2_B;245;2050;1805;ListFischi1;0;;2;201;344860;9;13;2079;346939;431;1;2079;1;583;535;1648;1;1
TMS_Ibrahim;43;2;"<?xml version=""1.0""?>\n<Clock xmlns:dt=""urn:schemas-microsoft-com:datatypes""><Description dt:dt=""string"">E-Prime Primary Realtime Clock</Description><StartTime><Timestamp dt:dt=""int"">0</Timestamp><DateUtc dt:dt=""string"">2022-10-27T09:12:13Z</DateUtc></StartTime><FrequencyChanges><FrequencyChange><Frequency dt:dt=""r8"">3312871</Frequency><Timestamp dt:dt=""r8"">15422129601</Timestamp><Current dt:dt=""r8"">0</Current><DateUtc dt:dt=""string"">2022-10-27T09:12:13Z</DateUtc></FrequencyChange></FrequencyChanges></Clock>\n";TMS_Ibrahim-43-2;75.030;1.0.0.561;1;;-1757077764;2.0.10.242;2.0.10.242;10-27-2022;27/10/2022 09:12;11:12:13;2.0.10.147;0;;-999999;16;11651;0;1;3296;14947;1;1;1;2;1;1;1;BlockProcFischi;BlockList;1;150;0;;-999999;13;15948;0;1;1453;17401;1;1;1;1;ProcFischi1;ListBlockFischi;47;1;2;0;0;3;Pr3_B;100;3;ug;3;2;23;1;47;3;1;TrialProc;715;711;Pr3_B;83;1793;1710;ListFischi1;0;;2;203;351925;8;13;1813;353738;454;1;1813;1;539;513;1359;1;1
TMS_Ibrahim;43;2;"<?xml version=""1.0""?>\n<Clock xmlns:dt=""urn:schemas-microsoft-com:datatypes""><Description dt:dt=""string"">E-Prime Primary Realtime Clock</Description><StartTime><Timestamp dt:dt=""int"">0</Timestamp><DateUtc dt:dt=""string"">2022-10-27T09:12:13Z</DateUtc></StartTime><FrequencyChanges><FrequencyChange><Frequency dt:dt=""r8"">3312871</Frequency><Timestamp dt:dt=""r8"">15422129601</Timestamp><Current dt:dt=""r8"">0</Current><DateUtc dt:dt=""string"">2022-10-27T09:12:13Z</DateUtc></FrequencyChange></FrequencyChanges></Clock>\n";TMS_Ibrahim-43-2;75.030;1.0.0.561;1;;-1757077764;2.0.10.242;2.0.10.242;10-27-2022;27/10/2022 09:12;11:12:13;2.0.10.147;0;;-999999;16;11651;0;1;3296;14947;1;1;1;2;1;1;1;BlockProcFischi;BlockList;1;150;0;;-999999;13;15948;0;1;1453;17401;1;1;1;1;ProcFischi1;ListBlockFischi;48;1;1;0;0;5;Po2_B;75;4;ug;5;2;54;1;48;4;1;TrialProc;806;1579;Po2_B;3;1809;1806;ListFischi1;0;;2;201;359307;10;15;1839;361146;384;1;1839;1;561;306;1455;1;1
TMS_Ibrahim;43;2;"<?xml version=""1.0""?>\n<Clock xmlns:dt=""urn:schemas-microsoft-com:datatypes""><Description dt:dt=""string"">E-Prime Primary Realtime Clock</Description><StartTime><Timestamp dt:dt=""int"">0</Timestamp><DateUtc dt:dt=""string"">2022-10-27T09:12:13Z</DateUtc></StartTime><FrequencyChanges><FrequencyChange><Frequency dt:dt=""r8"">3312871</Frequency><Timestamp dt:dt=""r8"">15422129601</Timestamp><Current dt:dt=""r8"">0</Current><DateUtc dt:dt=""string"">2022-10-27T09:12:13Z</DateUtc></FrequencyChange></FrequencyChanges></Clock>\n";TMS_Ibrahim-43-2;75.030;1.0.0.561;1;;-1757077764;2.0.10.242;2.0.10.242;10-27-2022;27/10/2022 09:12;11:12:13;2.0.10.147;0;;-999999;16;11651;0;1;3296;14947;1;1;1;2;1;1;1;BlockProcFischi;BlockList;1;150;0;;-999999;13;15948;0;1;1453;17401;1;1;1;1;ProcFischi1;ListBlockFischi;49;1;1;0;1;3;Po4_B;100;2;op;3;2;35;1;49;2;0;TrialProc;475;1339;Po4_B;153;1557;1711;ListFischi1;0;;2;203;366783;11;13;1579;368362;411;1;1579;1;1311;382;1168;1;1
TMS_Ibrahim;43;2;"<?xml version=""1.0""?>\n<Clock xmlns:dt=""urn:schemas-microsoft-com:datatypes""><Description dt:dt=""string"">E-Prime Primary Realtime Clock</Description><StartTime><Timestamp dt:dt=""int"">0</Timestamp><DateUtc dt:dt=""string"">2022-10-27T09:12:13Z</DateUtc></StartTime><FrequencyChanges><FrequencyChange><Frequency dt:dt=""r8"">3312871</Frequency><Timestamp dt:dt=""r8"">15422129601</Timestamp><Current dt:dt=""r8"">0</Current><DateUtc dt:dt=""string"">2022-10-27T09:12:13Z</DateUtc></FrequencyChange></FrequencyChanges></Clock>\n";TMS_Ibrahim-43-2;75.030;1.0.0.561;1;;-1757077764;2.0.10.242;2.0.10.242;10-27-2022;27/10/2022 09:12;11:12:13;2.0.10.147;0;;-999999;16;11651;0;1;3296;14947;1;1;1;2;1;1;1;BlockProcFischi;BlockList;1;150;0;;-999999;13;15948;0;1;1453;17401;1;1;1;1;ProcFischi1;ListBlockFischi;50;1;2;0;2;5;Pr8_B;175;1;op;5;2;10;1;50;1;0;TrialProc;896;710;Pr8_B;49;1784;1735;ListFischi1;0;;2;201;374156;9;15;1806;375962;334;1;1806;1;961;204;1472;1;1
TMS_Ibrahim;43;2;"<?xml version=""1.0""?>\n<Clock xmlns:dt=""urn:schemas-microsoft-com:datatypes""><Description dt:dt=""string"">E-Prime Primary Realtime Clock</Description><StartTime><Timestamp dt:dt=""int"">0</Timestamp><DateUtc dt:dt=""string"">2022-10-27T09:12:13Z</DateUtc></StartTime><FrequencyChanges><FrequencyChange><Frequency dt:dt=""r8"">3312871</Frequency><Timestamp dt:dt=""r8"">15422129601</Timestamp><Current dt:dt=""r8"">0</Current><DateUtc dt:dt=""string"">2022-10-27T09:12:13Z</DateUtc></FrequencyChange></FrequencyChanges></Clock>\n";TMS_Ibrahim-43-2;75.030;1.0.0.561;1;;-1757077764;2.0.10.242;2.0.10.242;10-27-2022;27/10/2022 09:12;11:12:13;2.0.10.147;0;;-999999;16;11651;0;1;3296;14947;1;1;1;2;1;1;1;BlockProcFischi;BlockList;1;150;0;;-999999;13;15948;0;1;1453;17401;1;1;1;1;ProcFischi1;ListBlockFischi;51;1;2;0;0;5;Pr2_B;150;1;op;5;2;11;1;51;1;0;TrialProc;761;713;Pr2_B;149;1396;1247;ListFischi1;0;;2;203;381630;12;15;1420;383050;284;1;1420;1;982;366;1136;1;1
TMS_Ibrahim;43;2;"<?xml version=""1.0""?>\n<Clock xmlns:dt=""urn:schemas-microsoft-com:datatypes""><Description dt:dt=""string"">E-Prime Primary Realtime Clock</Description><StartTime><Timestamp dt:dt=""int"">0</Timestamp><DateUtc dt:dt=""string"">2022-10-27T09:12:13Z</DateUtc></StartTime><FrequencyChanges><FrequencyChange><Frequency dt:dt=""r8"">3312871</Frequency><Timestamp dt:dt=""r8"">15422129601</Timestamp><Current dt:dt=""r8"">0</Current><DateUtc dt:dt=""string"">2022-10-27T09:12:13Z</DateUtc></FrequencyChange></FrequencyChanges></Clock>\n";TMS_Ibrahim-43-2;75.030;1.0.0.561;1;;-1757077764;2.0.10.242;2.0.10.242;10-27-2022;27/10/2022 09:12;11:12:13;2.0.10.147;0;;-999999;16;11651;0;1;3296;14947;1;1;1;2;1;1;1;BlockProcFischi;BlockList;1;150;0;;-999999;13;15948;0;1;1453;17401;1;1;1;1;ProcFischi1;ListBlockFischi;52;1;2;0;0;5;Pr4_B;150;1;op;5;2;8;1;52;1;0;TrialProc;967;672;Pr4_B;312;1557;1246;ListFischi1;0;;2;201;388776;10;15;1585;390361;353;1;1585;1;737;258;1232;1;1
TMS_Ibrahim;43;2;"<?xml version=""1.0""?>\n<Clock xmlns:dt=""urn:schemas-microsoft-com:datatypes""><Description dt:dt=""string"">E-Prime Primary Realtime Clock</Description><StartTime><Timestamp dt:dt=""int"">0</Timestamp><DateUtc dt:dt=""string"">2022-10-27T09:12:13Z</DateUtc></StartTime><FrequencyChanges><FrequencyChange><Frequency dt:dt=""r8"">3312871</Frequency><Timestamp dt:dt=""r8"">15422129601</Timestamp><Current dt:dt=""r8"">0</Current><DateUtc dt:dt=""string"">2022-10-27T09:12:13Z</DateUtc></FrequencyChange></FrequencyChanges></Clock>\n";TMS_Ibrahim-43-2;75.030;1.0.0.561;1;;-1757077764;2.0.10.242;2.0.10.242;10-27-2022;27/10/2022 09:12;11:12:13;2.0.10.147;0;;-999999;16;11651;0;1;3296;14947;1;1;1;2;1;1;1;BlockProcFischi;BlockList;1;150;0;;-999999;13;15948;0;1;1453;17401;1;1;1;1;ProcFischi1;ListBlockFischi;53;1;1;0;2;3;Po8_B;100;2;op;3;2;37;1;53;2;0;TrialProc;897;1249;Po8_B;103;1480;1583;ListFischi1;0;;2;203;395954;15;13;1511;397465;471;1;1511;1;1140;492;1040;1;1
TMS_Ibrahim;43;2;"<?xml version=""1.0""?>\n<Clock xmlns:dt=""urn:schemas-microsoft-com:datatypes""><Description dt:dt=""string"">E-Prime Primary Realtime Clock</Description><StartTime><Timestamp dt:dt=""int"">0</Timestamp><DateUtc dt:dt=""string"">2022-10-27T09:12:13Z</DateUtc></StartTime><FrequencyChanges><FrequencyChange><Frequency dt:dt=""r8"">3312871</Frequency><Timestamp dt:dt=""r8"">15422129601</Timestamp><Current dt:dt=""r8"">0</Current><DateUtc dt:dt=""string"">2022-10-27T09:12:13Z</DateUtc></FrequencyChange></FrequencyChanges></Clock>\n";TMS_Ibrahim-43-2;75.030;1.0.0.561;1;;-1757077764;2.0.10.242;2.0.10.242;10-27-2022;27/10/2022 09:12;11:12:13;2.0.10.147;0;;-999999;16;11651;0;1;3296;14947;1;1;1;2;1;1;1;BlockProcFischi;BlockList;1;150;0;;-999999;13;15948;0;1;1453;17401;1;1;1;1;ProcFischi1;ListBlockFischi;54;1;1;0;2;3;Po4_B;100;2;op;3;2;40;1;54;2;0;TrialProc;585;1342;Po4_B;238;1478;1716;ListFischi1;0;;2;201;403126;14;1333;3091;406217;563;1;1507;1;1547;305;944;1;1
TMS_Ibrahim;43;2;"<?xml version=""1.0""?>\n<Clock xmlns:dt=""urn:schemas-microsoft-com:datatypes""><Description dt:dt=""string"">E-Prime Primary Realtime Clock</Description><StartTime><Timestamp dt:dt=""int"">0</Timestamp><DateUtc dt:dt=""string"">2022-10-27T09:12:13Z</DateUtc></StartTime><FrequencyChanges><FrequencyChange><Frequency dt:dt=""r8"">3312871</Frequency><Timestamp dt:dt=""r8"">15422129601</Timestamp><Current dt:dt=""r8"">0</Current><DateUtc dt:dt=""string"">2022-10-27T09:12:13Z</DateUtc></FrequencyChange></FrequencyChanges></Clock>\n";TMS_Ibrahim-43-2;75.030;1.0.0.561;1;;-1757077764;2.0.10.242;2.0.10.242;10-27-2022;27/10/2022 09:12;11:12:13;2.0.10.147;0;;-999999;16;11651;0;1;3296;14947;1;1;1;2;1;1;1;BlockProcFischi;BlockList;1;150;0;;-999999;13;15948;0;1;1453;17401;1;1;1;1;ProcFischi1;ListBlockFischi;55;1;1;0;0;3;Po4_B;125;2;op;3;2;45;1;55;2;0;TrialProc;810;1341;Po4_B;100;1614;1714;ListFischi1;0;;2;203;409166;12;133;2843;412009;523;1;1643;1;978;398;1120;1;1
TMS_Ibrahim;43;2;"<?xml version=""1.0""?>\n<Clock xmlns:dt=""urn:schemas-microsoft-com:datatypes""><Description dt:dt=""string"">E-Prime Primary Realtime Clock</Description><StartTime><Timestamp dt:dt=""int"">0</Timestamp><DateUtc dt:dt=""string"">2022-10-27T09:12:13Z</DateUtc></StartTime><FrequencyChanges><FrequencyChange><Frequency dt:dt=""r8"">3312871</Frequency><Timestamp dt:dt=""r8"">15422129601</Timestamp><Current dt:dt=""r8"">0</Current><DateUtc dt:dt=""string"">2022-10-27T09:12:13Z</DateUtc></FrequencyChange></FrequencyChanges></Clock>\n";TMS_Ibrahim-43-2;75.030;1.0.0.561;1;;-1757077764;2.0.10.242;2.0.10.242;10-27-2022;27/10/2022 09:12;11:12:13;2.0.10.147;0;;-999999;16;11651;0;1;3296;14947;1;1;1;2;1;1;1;BlockProcFischi;BlockList;1;150;0;;-999999;13;15948;0;1;1453;17401;1;1;1;1;ProcFischi1;ListBlockFischi;56;0;1;1;0;3;Pomod_B;;2;op;5;2;47;1;56;2;0;TrialProc;1049;6000;Pomod_B;29;6000;6000;ListFischi1;0;;2;201;415080;15;155;2432;417512;609;1;1728;1;663;307;1119;1;0
TMS_Ibrahim;43;2;"<?xml version=""1.0""?>\n<Clock xmlns:dt=""urn:schemas-microsoft-com:datatypes""><Description dt:dt=""string"">E-Prime Primary Realtime Clock</Description><StartTime><Timestamp dt:dt=""int"">0</Timestamp><DateUtc dt:dt=""string"">2022-10-27T09:12:13Z</DateUtc></StartTime><FrequencyChanges><FrequencyChange><Frequency dt:dt=""r8"">3312871</Frequency><Timestamp dt:dt=""r8"">15422129601</Timestamp><Current dt:dt=""r8"">0</Current><DateUtc dt:dt=""string"">2022-10-27T09:12:13Z</DateUtc></FrequencyChange></FrequencyChanges></Clock>\n";TMS_Ibrahim-43-2;75.030;1.0.0.561;1;;-1757077764;2.0.10.242;2.0.10.242;10-27-2022;27/10/2022 09:12;11:12:13;2.0.10.147;0;;-999999;16;11651;0;1;3296;14947;1;1;1;2;1;1;1;BlockProcFischi;BlockList;1;150;0;;-999999;13;15948;0;1;1453;17401;1;1;1;1;ProcFischi1;ListBlockFischi;57;1;1;0;0;3;Po5_B;125;2;op;3;2;36;1;57;2;0;TrialProc;921;979;Po5_B;62;1534;1472;ListFischi1;0;;2;203;421694;12;13;1562;423256;746;1;1562;1;903;337;816;1;1
TMS_Ibrahim;43;2;"<?xml version=""1.0""?>\n<Clock xmlns:dt=""urn:schemas-microsoft-com:datatypes""><Description dt:dt=""string"">E-Prime Primary Realtime Clock</Description><StartTime><Timestamp dt:dt=""int"">0</Timestamp><DateUtc dt:dt=""string"">2022-10-27T09:12:13Z</DateUtc></StartTime><FrequencyChanges><FrequencyChange><Frequency dt:dt=""r8"">3312871</Frequency><Timestamp dt:dt=""r8"">15422129601</Timestamp><Current dt:dt=""r8"">0</Current><DateUtc dt:dt=""string"">2022-10-27T09:12:13Z</DateUtc></FrequencyChange></FrequencyChanges></Clock>\n";TMS_Ibrahim-43-2;75.030;1.0.0.561;1;;-1757077764;2.0.10.242;2.0.10.242;10-27-2022;27/10/2022 09:12;11:12:13;2.0.10.147;0;;-999999;16;11651;0;1;3296;14947;1;1;1;2;1;1;1;BlockProcFischi;BlockList;1;150;0;;-999999;13;15948;0;1;1453;17401;1;1;1;1;ProcFischi1;ListBlockFischi;58;1;1;0;0;5;Po4_B;50;4;ug;5;2;61;1;58;4;1;TrialProc;947;1342;Po4_B;156;1558;1714;ListFischi1;0;;2;201;428743;14;15;1585;430328;417;1;1585;1;935;329;1168;1;1
TMS_Ibrahim;43;2;"<?xml version=""1.0""?>\n<Clock xmlns:dt=""urn:schemas-microsoft-com:datatypes""><Description dt:dt=""string"">E-Prime Primary Realtime Clock</Description><StartTime><Timestamp dt:dt=""int"">0</Timestamp><DateUtc dt:dt=""string"">2022-10-27T09:12:13Z</DateUtc></StartTime><FrequencyChanges><FrequencyChange><Frequency dt:dt=""r8"">3312871</Frequency><Timestamp dt:dt=""r8"">15422129601</Timestamp><Current dt:dt=""r8"">0</Current><DateUtc dt:dt=""string"">2022-10-27T09:12:13Z</DateUtc></FrequencyChange></FrequencyChanges></Clock>\n";TMS_Ibrahim-43-2;75.030;1.0.0.561;1;;-1757077764;2.0.10.242;2.0.10.242;10-27-2022;27/10/2022 09:12;11:12:13;2.0.10.147;0;;-999999;16;11651;0;1;3296;14947;1;1;1;2;1;1;1;BlockProcFischi;BlockList;1;150;0;;-999999;13;15948;0;1;1453;17401;1;1;1;1;ProcFischi1;ListBlockFischi;59;1;2;0;1;5;Pr2_B;150;1;op;5;2;6;1;59;1;0;TrialProc;703;712;Pr2_B;158;1403;1245;ListFischi1;0;;2;203;436371;9;15;1429;437800;357;1;1429;1;1365;343;1072;1;1
TMS_Ibrahim;43;2;"<?xml version=""1.0""?>\n<Clock xmlns:dt=""urn:schemas-microsoft-com:datatypes""><Description dt:dt=""string"">E-Prime Primary Realtime Clock</Description><StartTime><Timestamp dt:dt=""int"">0</Timestamp><DateUtc dt:dt=""string"">2022-10-27T09:12:13Z</DateUtc></StartTime><FrequencyChanges><FrequencyChange><Frequency dt:dt=""r8"">3312871</Frequency><Timestamp dt:dt=""r8"">15422129601</Timestamp><Current dt:dt=""r8"">0</Current><DateUtc dt:dt=""string"">2022-10-27T09:12:13Z</DateUtc></FrequencyChange></FrequencyChanges></Clock>\n";TMS_Ibrahim-43-2;75.030;1.0.0.561;1;;-1757077764;2.0.10.242;2.0.10.242;10-27-2022;27/10/2022 09:12;11:12:13;2.0.10.147;0;;-999999;16;11651;0;1;3296;14947;1;1;1;2;1;1;1;BlockProcFischi;BlockList;1;150;0;;-999999;13;15948;0;1;1453;17401;1;1;1;1;ProcFischi1;ListBlockFischi;60;1;2;0;0;3;Pr5_B;100;3;ug;3;2;20;1;60;3;1;TrialProc;966;672;Pr5_B;173;1445;1271;ListFischi1;0;;2;203;443728;10;13;1480;445208;600;1;1480;1;351;516;880;1;1
TMS_Ibrahim;43;2;"<?xml version=""1.0""?>\n<Clock xmlns:dt=""urn:schemas-microsoft-com:datatypes""><Description dt:dt=""string"">E-Prime Primary Realtime Clock</Description><StartTime><Timestamp dt:dt=""int"">0</Timestamp><DateUtc dt:dt=""string"">2022-10-27T09:12:13Z</DateUtc></StartTime><FrequencyChanges><FrequencyChange><Frequency dt:dt=""r8"">3312871</Frequency><Timestamp dt:dt=""r8"">15422129601</Timestamp><Current dt:dt=""r8"">0</Current><DateUtc dt:dt=""string"">2022-10-27T09:12:13Z</DateUtc></FrequencyChange></FrequencyChanges></Clock>\n";TMS_Ibrahim-43-2;75.030;1.0.0.561;1;;-1757077764;2.0.10.242;2.0.10.242;10-27-2022;27/10/2022 09:12;11:12:13;2.0.10.147;0;;-999999;16;11651;0;1;3296;14947;1;1;1;2;1;1;1;BlockProcFischi;BlockList;1;150;0;;-999999;13;15948;0;1;1453;17401;1;1;1;1;ProcFischi1;ListBlockFischi;61;1;2;0;1;5;Pr3_B;150;1;op;5;2;12;1;61;1;0;TrialProc;763;708;Pr3_B;153;1553;1707;ListFischi1;0;;2;203;450928;7;15;1575;452503;327;1;1575;1;2183;405;1248;1;1
TMS_Ibrahim;43;2;"<?xml version=""1.0""?>\n<Clock xmlns:dt=""urn:schemas-microsoft-com:datatypes""><Description dt:dt=""string"">E-Prime Primary Realtime Clock</Description><StartTime><Timestamp dt:dt=""int"">0</Timestamp><DateUtc dt:dt=""string"">2022-10-27T09:12:13Z</DateUtc></StartTime><FrequencyChanges><FrequencyChange><Frequency dt:dt=""r8"">3312871</Frequency><Timestamp dt:dt=""r8"">15422129601</Timestamp><Current dt:dt=""r8"">0</Current><DateUtc dt:dt=""string"">2022-10-27T09:12:13Z</DateUtc></FrequencyChange></FrequencyChanges></Clock>\n";TMS_Ibrahim-43-2;75.030;1.0.0.561;1;;-1757077764;2.0.10.242;2.0.10.242;10-27-2022;27/10/2022 09:12;11:12:13;2.0.10.147;0;;-999999;16;11651;0;1;3296;14947;1;1;1;2;1;1;1;BlockProcFischi;BlockList;1;150;0;;-999999;13;15948;0;1;1453;17401;1;1;1;1;ProcFischi1;ListBlockFischi;62;1;1;0;1;5;Po2_B;50;4;ug;5;2;49;1;62;4;1;TrialProc;617;1577;Po2_B;150;1654;1804;ListFischi1;0;;3;201;458255;10;155;2040;460295;456;1;1688;1;1105;281;1232;1;1
TMS_Ibrahim;43;2;"<?xml version=""1.0""?>\n<Clock xmlns:dt=""urn:schemas-microsoft-com:datatypes""><Description dt:dt=""string"">E-Prime Primary Realtime Clock</Description><StartTime><Timestamp dt:dt=""int"">0</Timestamp><DateUtc dt:dt=""string"">2022-10-27T09:12:13Z</DateUtc></StartTime><FrequencyChanges><FrequencyChange><Frequency dt:dt=""r8"">3312871</Frequency><Timestamp dt:dt=""r8"">15422129601</Timestamp><Current dt:dt=""r8"">0</Current><DateUtc dt:dt=""string"">2022-10-27T09:12:13Z</DateUtc></FrequencyChange></FrequencyChanges></Clock>\n";TMS_Ibrahim-43-2;75.030;1.0.0.561;1;;-1757077764;2.0.10.242;2.0.10.242;10-27-2022;27/10/2022 09:12;11:12:13;2.0.10.147;0;;-999999;16;11651;0;1;3296;14947;1;1;1;2;1;1;1;BlockProcFischi;BlockList;1;150;0;;-999999;13;15948;0;1;1453;17401;1;1;1;1;ProcFischi1;ListBlockFischi;63;1;1;0;0;3;Po5_B;100;2;op;3;2;41;1;63;2;0;TrialProc;959;981;Po5_B;73;1547;1474;ListFischi1;0;;2;203;465556;13;13;1571;467127;483;1;1571;1;531;243;1088;1;1
TMS_Ibrahim;43;2;"<?xml version=""1.0""?>\n<Clock xmlns:dt=""urn:schemas-microsoft-com:datatypes""><Description dt:dt=""string"">E-Prime Primary Realtime Clock</Description><StartTime><Timestamp dt:dt=""int"">0</Timestamp><DateUtc dt:dt=""string"">2022-10-27T09:12:13Z</DateUtc></StartTime><FrequencyChanges><FrequencyChange><Frequency dt:dt=""r8"">3312871</Frequency><Timestamp dt:dt=""r8"">15422129601</Timestamp><Current dt:dt=""r8"">0</Current><DateUtc dt:dt=""string"">2022-10-27T09:12:13Z</DateUtc></FrequencyChange></FrequencyChanges></Clock>\n";TMS_Ibrahim-43-2;75.030;1.0.0.561;1;;-1757077764;2.0.10.242;2.0.10.242;10-27-2022;27/10/2022 09:12;11:12:13;2.0.10.147;0;;-999999;16;11651;0;1;3296;14947;1;1;1;2;1;1;1;BlockProcFischi;BlockList;1;150;0;;-999999;13;15948;0;1;1453;17401;1;1;1;1;ProcFischi1;ListBlockFischi;64;1;2;1;1;3;Prmod_B;100;3;ug;3;2;32;1;64;3;1;TrialProc;414;1315;Prmod_B;272;1919;1648;ListFischi1;0;;2;201;472967;12;13;1952;474919;496;1;1952;1;2912;479;1456;1;1
TMS_Ibrahim;43;4;"<?xml version=""1.0""?>\n<Clock xmlns:dt=""urn:schemas-microsoft-com:datatypes""><Description dt:dt=""string"">E-Prime Primary Realtime Clock</Description><StartTime><Timestamp dt:dt=""int"">0</Timestamp><DateUtc dt:dt=""string"">2022-10-27T10:11:08Z</DateUtc></StartTime><FrequencyChanges><FrequencyChange><Frequency dt:dt=""r8"">3312871</Frequency><Timestamp dt:dt=""r8"">27135784456</Timestamp><Current dt:dt=""r8"">0</Current><DateUtc dt:dt=""string"">2022-10-27T10:11:08Z</DateUtc></FrequencyChange></FrequencyChanges></Clock>\n";TMS_Ibrahim-43-4;75.029;1.0.0.561;1;;1366645655;2.0.10.242;2.0.10.242;10-27-2022;27/10/2022 10:11;12:11:09;2.0.10.147;0;;-999999;15;13541;0;1;1197;14738;1;1;1;2;1;0;1;BlockProcFischi;BlockList;1;150;0;;-999999;13;17011;0;1;3725;20736;1;1;1;1;ProcFischi1;ListBlockFischi;1;1;1;0;0;3;Po2_B;250;2;op;3;2;38;1;1;2;0;TrialProc;725;1580;Po2_B;54;1901;1847;ListFischi1;0;;3;203;22322;13;13;1927;24249;983;1;1927;1;555;529;944;1;1
TMS_Ibrahim;43;4;"<?xml version=""1.0""?>\n<Clock xmlns:dt=""urn:schemas-microsoft-com:datatypes""><Description dt:dt=""string"">E-Prime Primary Realtime Clock</Description><StartTime><Timestamp dt:dt=""int"">0</Timestamp><DateUtc dt:dt=""string"">2022-10-27T10:11:08Z</DateUtc></StartTime><FrequencyChanges><FrequencyChange><Frequency dt:dt=""r8"">3312871</Frequency><Timestamp dt:dt=""r8"">27135784456</Timestamp><Current dt:dt=""r8"">0</Current><DateUtc dt:dt=""string"">2022-10-27T10:11:08Z</DateUtc></FrequencyChange></FrequencyChanges></Clock>\n";TMS_Ibrahim-43-4;75.029;1.0.0.561;1;;1366645655;2.0.10.242;2.0.10.242;10-27-2022;27/10/2022 10:11;12:11:09;2.0.10.147;0;;-999999;15;13541;0;1;1197;14738;1;1;1;2;1;0;1;BlockProcFischi;BlockList;1;150;0;;-999999;13;17011;0;1;3725;20736;1;1;1;1;ProcFischi1;ListBlockFischi;2;1;1;0;0;5;Po3_B;250;4;ug;5;2;55;1;2;4;1;TrialProc;748;1307;Po3_B;126;1448;1574;ListFischi1;0;;1;204;29487;6;15;1466;30953;401;1;1466;1;574;592;1065;1;1
TMS_Ibrahim;43;4;"<?xml version=""1.0""?>\n<Clock xmlns:dt=""urn:schemas-microsoft-com:datatypes""><Description dt:dt=""string"">E-Prime Primary Realtime Clock</Description><StartTime><Timestamp dt:dt=""int"">0</Timestamp><DateUtc dt:dt=""string"">2022-10-27T10:11:08Z</DateUtc></StartTime><FrequencyChanges><FrequencyChange><Frequency dt:dt=""r8"">3312871</Frequency><Timestamp dt:dt=""r8"">27135784456</Timestamp><Current dt:dt=""r8"">0</Current><DateUtc dt:dt=""string"">2022-10-27T10:11:08Z</DateUtc></FrequencyChange></FrequencyChanges></Clock>\n";TMS_Ibrahim-43-4;75.029;1.0.0.561;1;;1366645655;2.0.10.242;2.0.10.242;10-27-2022;27/10/2022 10:11;12:11:09;2.0.10.147;0;;-999999;15;13541;0;1;1197;14738;1;1;1;2;1;0;1;BlockProcFischi;BlockList;1;150;0;;-999999;13;17011;0;1;3725;20736;1;1;1;1;ProcFischi1;ListBlockFischi;3;1;1;0;0;3;Po5_B;225;2;op;3;2;36;1;3;2;0;TrialProc;1207;980;Po5_B;24;1498;1473;ListFischi1;0;;2;203;36997;13;13;1524;38521;436;1;1524;1;601;319;1088;1;1
TMS_Ibrahim;43;4;"<?xml version=""1.0""?>\n<Clock xmlns:dt=""urn:schemas-microsoft-com:datatypes""><Description dt:dt=""string"">E-Prime Primary Realtime Clock</Description><StartTime><Timestamp dt:dt=""int"">0</Timestamp><DateUtc dt:dt=""string"">2022-10-27T10:11:08Z</DateUtc></StartTime><FrequencyChanges><FrequencyChange><Frequency dt:dt=""r8"">3312871</Frequency><Timestamp dt:dt=""r8"">27135784456</Timestamp><Current dt:dt=""r8"">0</Current><DateUtc dt:dt=""string"">2022-10-27T10:11:08Z</DateUtc></FrequencyChange></FrequencyChanges></Clock>\n";TMS_Ibrahim-43-4;75.029;1.0.0.561;1;;1366645655;2.0.10.242;2.0.10.242;10-27-2022;27/10/2022 10:11;12:11:09;2.0.10.147;0;;-999999;15;13541;0;1;1197;14738;1;1;1;2;1;0;1;BlockProcFischi;BlockList;1;150;0;;-999999;13;17011;0;1;3725;20736;1;1;1;1;ProcFischi1;ListBlockFischi;4;1;2;0;0;3;Pr3_B;250;3;ug;3;2;18;1;4;3;1;TrialProc;846;713;Pr3_B;191;1522;1712;ListFischi1;0;;3;201;44207;13;133;2633;46840;538;1;1545;1;473;243;1007;1;1
TMS_Ibrahim;43;4;"<?xml version=""1.0""?>\n<Clock xmlns:dt=""urn:schemas-microsoft-com:datatypes""><Description dt:dt=""string"">E-Prime Primary Realtime Clock</Description><StartTime><Timestamp dt:dt=""int"">0</Timestamp><DateUtc dt:dt=""string"">2022-10-27T10:11:08Z</DateUtc></StartTime><FrequencyChanges><FrequencyChange><Frequency dt:dt=""r8"">3312871</Frequency><Timestamp dt:dt=""r8"">27135784456</Timestamp><Current dt:dt=""r8"">0</Current><DateUtc dt:dt=""string"">2022-10-27T10:11:08Z</DateUtc></FrequencyChange></FrequencyChanges></Clock>\n";TMS_Ibrahim-43-4;75.029;1.0.0.561;1;;1366645655;2.0.10.242;2.0.10.242;10-27-2022;27/10/2022 10:11;12:11:09;2.0.10.147;0;;-999999;15;13541;0;1;1197;14738;1;1;1;2;1;0;1;BlockProcFischi;BlockList;1;150;0;;-999999;13;17011;0;1;3725;20736;1;1;1;1;ProcFischi1;ListBlockFischi;5;1;1;0;0;5;Po3_B;225;4;ug;5;2;60;1;5;4;1;TrialProc;926;1314;Po3_B;144;1435;1579;ListFischi1;0;;2;203;50366;12;15;1466;51832;554;1;1466;1;411;545;912;1;1
TMS_Ibrahim;43;4;"<?xml version=""1.0""?>\n<Clock xmlns:dt=""urn:schemas-microsoft-com:datatypes""><Description dt:dt=""string"">E-Prime Primary Realtime Clock</Description><StartTime><Timestamp dt:dt=""int"">0</Timestamp><DateUtc dt:dt=""string"">2022-10-27T10:11:08Z</DateUtc></StartTime><FrequencyChanges><FrequencyChange><Frequency dt:dt=""r8"">3312871</Frequency><Timestamp dt:dt=""r8"">27135784456</Timestamp><Current dt:dt=""r8"">0</Current><DateUtc dt:dt=""string"">2022-10-27T10:11:08Z</DateUtc></FrequencyChange></FrequencyChanges></Clock>\n";TMS_Ibrahim-43-4;75.029;1.0.0.561;1;;1366645655;2.0.10.242;2.0.10.242;10-27-2022;27/10/2022 10:11;12:11:09;2.0.10.147;0;;-999999;15;13541;0;1;1197;14738;1;1;1;2;1;0;1;BlockProcFischi;BlockList;1;150;0;;-999999;13;17011;0;1;3725;20736;1;1;1;1;ProcFischi1;ListBlockFischi;6;1;1;0;0;3;Po2_B;200;2;op;3;2;33;1;6;2;0;TrialProc;780;1586;Po2_B;350;1462;1812;ListFischi1;0;;2;201;57651;17;13;1493;59144;437;1;1493;1;523;459;1056;1;1
TMS_Ibrahim;43;4;"<?xml version=""1.0""?>\n<Clock xmlns:dt=""urn:schemas-microsoft-com:datatypes""><Description dt:dt=""string"">E-Prime Primary Realtime Clock</Description><StartTime><Timestamp dt:dt=""int"">0</Timestamp><DateUtc dt:dt=""string"">2022-10-27T10:11:08Z</DateUtc></StartTime><FrequencyChanges><FrequencyChange><Frequency dt:dt=""r8"">3312871</Frequency><Timestamp dt:dt=""r8"">27135784456</Timestamp><Current dt:dt=""r8"">0</Current><DateUtc dt:dt=""string"">2022-10-27T10:11:08Z</DateUtc></FrequencyChange></FrequencyChanges></Clock>\n";TMS_Ibrahim-43-4;75.029;1.0.0.561;1;;1366645655;2.0.10.242;2.0.10.242;10-27-2022;27/10/2022 10:11;12:11:09;2.0.10.147;0;;-999999;15;13541;0;1;1197;14738;1;1;1;2;1;0;1;BlockProcFischi;BlockList;1;150;0;;-999999;13;17011;0;1;3725;20736;1;1;1;1;ProcFischi1;ListBlockFischi;7;1;1;0;0;5;Po8_B;200;4;ug;5;2;58;1;7;4;1;TrialProc;1027;1250;Po8_B;153;1738;1584;ListFischi1;0;;2;203;65197;15;15;1771;66968;619;1;1771;1;361;431;1152;1;1
TMS_Ibrahim;43;4;"<?xml version=""1.0""?>\n<Clock xmlns:dt=""urn:schemas-microsoft-com:datatypes""><Description dt:dt=""string"">E-Prime Primary Realtime Clock</Description><StartTime><Timestamp dt:dt=""int"">0</Timestamp><DateUtc dt:dt=""string"">2022-10-27T10:11:08Z</DateUtc></StartTime><FrequencyChanges><FrequencyChange><Frequency dt:dt=""r8"">3312871</Frequency><Timestamp dt:dt=""r8"">27135784456</Timestamp><Current dt:dt=""r8"">0</Current><DateUtc dt:dt=""string"">2022-10-27T10:11:08Z</DateUtc></FrequencyChange></FrequencyChanges></Clock>\n";TMS_Ibrahim-43-4;75.029;1.0.0.561;1;;1366645655;2.0.10.242;2.0.10.242;10-27-2022;27/10/2022 10:11;12:11:09;2.0.10.147;0;;-999999;15;13541;0;1;1197;14738;1;1;1;2;1;0;1;BlockProcFischi;BlockList;1;150;0;;-999999;13;17011;0;1;3725;20736;1;1;1;1;ProcFischi1;ListBlockFischi;8;1;1;0;1;3;Po3_B;200;2;op;3;2;34;1;8;2;0;TrialProc;884;1311;Po3_B;65;1513;1577;ListFischi1;0;;2;201;72452;10;13;1540;73992;532;1;1540;1;502;445;1008;1;1
TMS_Ibrahim;43;4;"<?xml version=""1.0""?>\n<Clock xmlns:dt=""urn:schemas-microsoft-com:datatypes""><Description dt:dt=""string"">E-Prime Primary Realtime Clock</Description><StartTime><Timestamp dt:dt=""int"">0</Timestamp><DateUtc dt:dt=""string"">2022-10-27T10:11:08Z</DateUtc></StartTime><FrequencyChanges><FrequencyChange><Frequency dt:dt=""r8"">3312871</Frequency><Timestamp dt:dt=""r8"">27135784456</Timestamp><Current dt:dt=""r8"">0</Current><DateUtc dt:dt=""string"">2022-10-27T10:11:08Z</DateUtc></FrequencyChange></FrequencyChanges></Clock>\n";TMS_Ibrahim-43-4;75.029;1.0.0.561;1;;1366645655;2.0.10.242;2.0.10.242;10-27-2022;27/10/2022 10:11;12:11:09;2.0.10.147;0;;-999999;15;13541;0;1;1197;14738;1;1;1;2;1;0;1;BlockProcFischi;BlockList;1;150;0;;-999999;13;17011;0;1;3725;20736;1;1;1;1;ProcFischi1;ListBlockFischi;9;1;2;0;0;5;Pr3_B;250;1;op;5;2;2;1;9;1;0;TrialProc;1275;712;Pr3_B;106;1605;1711;ListFischi1;0;;2;203;79569;11;15;1638;81207;582;1;1638;1;189;451;1056;1;1
TMS_Ibrahim;43;4;"<?xml version=""1.0""?>\n<Clock xmlns:dt=""urn:schemas-microsoft-com:datatypes""><Description dt:dt=""string"">E-Prime Primary Realtime Clock</Description><StartTime><Timestamp dt:dt=""int"">0</Timestamp><DateUtc dt:dt=""string"">2022-10-27T10:11:08Z</DateUtc></StartTime><FrequencyChanges><FrequencyChange><Frequency dt:dt=""r8"">3312871</Frequency><Timestamp dt:dt=""r8"">27135784456</Timestamp><Current dt:dt=""r8"">0</Current><DateUtc dt:dt=""string"">2022-10-27T10:11:08Z</DateUtc></FrequencyChange></FrequencyChanges></Clock>\n";TMS_Ibrahim-43-4;75.029;1.0.0.561;1;;1366645655;2.0.10.242;2.0.10.242;10-27-2022;27/10/2022 10:11;12:11:09;2.0.10.147;0;;-999999;15;13541;0;1;1197;14738;1;1;1;2;1;0;1;BlockProcFischi;BlockList;1;150;0;;-999999;13;17011;0;1;3725;20736;1;1;1;1;ProcFischi1;ListBlockFischi;10;1;1;1;0;3;Pomod_B;175;2;op;3;2;47;1;10;2;0;TrialProc;898;1312;Pomod_B;217;1890;1673;ListFischi1;0;;2;201;87100;10;13;1915;89015;667;1;1915;1;421;213;1248;1;1
TMS_Ibrahim;43;4;"<?xml version=""1.0""?>\n<Clock xmlns:dt=""urn:schemas-microsoft-com:datatypes""><Description dt:dt=""string"">E-Prime Primary Realtime Clock</Description><StartTime><Timestamp dt:dt=""int"">0</Timestamp><DateUtc dt:dt=""string"">2022-10-27T10:11:08Z</DateUtc></StartTime><FrequencyChanges><FrequencyChange><Frequency dt:dt=""r8"">3312871</Frequency><Timestamp dt:dt=""r8"">27135784456</Timestamp><Current dt:dt=""r8"">0</Current><DateUtc dt:dt=""string"">2022-10-27T10:11:08Z</DateUtc></FrequencyChange></FrequencyChanges></Clock>\n";TMS_Ibrahim-43-4;75.029;1.0.0.561;1;;1366645655;2.0.10.242;2.0.10.242;10-27-2022;27/10/2022 10:11;12:11:09;2.0.10.147;0;;-999999;15;13541;0;1;1197;14738;1;1;1;2;1;0;1;BlockProcFischi;BlockList;1;150;0;;-999999;13;17011;0;1;3725;20736;1;1;1;1;ProcFischi1;ListBlockFischi;11;1;2;1;0;3;Prmod_B;225;3;ug;3;2;31;1;11;3;1;TrialProc;869;1315;Prmod_B;31;1679;1649;ListFischi1;0;;2;203;94146;15;13;1701;95847;613;1;1701;1;496;451;1088;1;1
TMS_Ibrahim;43;4;"<?xml version=""1.0""?>\n<Clock xmlns:dt=""urn:schemas-microsoft-com:datatypes""><Description dt:dt=""string"">E-Prime Primary Realtime Clock</Description><StartTime><Timestamp dt:dt=""int"">0</Timestamp><DateUtc dt:dt=""string"">2022-10-27T10:11:08Z</DateUtc></StartTime><FrequencyChanges><FrequencyChange><Frequency dt:dt=""r8"">3312871</Frequency><Timestamp dt:dt=""r8"">27135784456</Timestamp><Current dt:dt=""r8"">0</Current><DateUtc dt:dt=""string"">2022-10-27T10:11:08Z</DateUtc></FrequencyChange></FrequencyChanges></Clock>\n";TMS_Ibrahim-43-4;75.029;1.0.0.561;1;;1366645655;2.0.10.242;2.0.10.242;10-27-2022;27/10/2022 10:11;12:11:09;2.0.10.147;0;;-999999;15;13541;0;1;1197;14738;1;1;1;2;1;0;1;BlockProcFischi;BlockList;1;150;0;;-999999;13;17011;0;1;3725;20736;1;1;1;1;ProcFischi1;ListBlockFischi;12;0;1;0;1;3;Po2_B;;2;op;5;2;43;1;12;2;0;TrialProc;1789;1584;Po2_B;17;1793;1810;ListFischi1;0;;2;201;101144;14;155;2559;103703;591;1;1823;1;424;344;1232;1;0
TMS_Ibrahim;43;4;"<?xml version=""1.0""?>\n<Clock xmlns:dt=""urn:schemas-microsoft-com:datatypes""><Description dt:dt=""string"">E-Prime Primary Realtime Clock</Description><StartTime><Timestamp dt:dt=""int"">0</Timestamp><DateUtc dt:dt=""string"">2022-10-27T10:11:08Z</DateUtc></StartTime><FrequencyChanges><FrequencyChange><Frequency dt:dt=""r8"">3312871</Frequency><Timestamp dt:dt=""r8"">27135784456</Timestamp><Current dt:dt=""r8"">0</Current><DateUtc dt:dt=""string"">2022-10-27T10:11:08Z</DateUtc></FrequencyChange></FrequencyChanges></Clock>\n";TMS_Ibrahim-43-4;75.029;1.0.0.561;1;;1366645655;2.0.10.242;2.0.10.242;10-27-2022;27/10/2022 10:11;12:11:09;2.0.10.147;0;;-999999;15;13541;0;1;1197;14738;1;1;1;2;1;0;1;BlockProcFischi;BlockList;1;150;0;;-999999;13;17011;0;1;3725;20736;1;1;1;1;ProcFischi1;ListBlockFischi;13;1;1;0;0;5;Po4_B;175;4;ug;5;2;51;1;13;4;1;TrialProc;1082;1338;Po4_B;26;1739;1713;ListFischi1;0;;2;203;107812;10;15;1762;109574;850;1;1762;1;398;441;912;1;1
TMS_Ibrahim;43;4;"<?xml version=""1.0""?>\n<Clock xmlns:dt=""urn:schemas-microsoft-com:datatypes""><Description dt:dt=""string"">E-Prime Primary Realtime Clock</Description><StartTime><Timestamp dt:dt=""int"">0</Timestamp><DateUtc dt:dt=""string"">2022-10-27T10:11:08Z</DateUtc></StartTime><FrequencyChanges><FrequencyChange><Frequency dt:dt=""r8"">3312871</Frequency><Timestamp dt:dt=""r8"">27135784456</Timestamp><Current dt:dt=""r8"">0</Current><DateUtc dt:dt=""string"">2022-10-27T10:11:08Z</DateUtc></FrequencyChange></FrequencyChanges></Clock>\n";TMS_Ibrahim-43-4;75.029;1.0.0.561;1;;1366645655;2.0.10.242;2.0.10.242;10-27-2022;27/10/2022 10:11;12:11:09;2.0.10.147;0;;-999999;15;13541;0;1;1197;14738;1;1;1;2;1;0;1;BlockProcFischi;BlockList;1;150;0;;-999999;13;17011;0;1;3725;20736;1;1;1;1;ProcFischi1;ListBlockFischi;14;1;1;0;0;5;Po2_B;150;4;ug;5;2;54;1;14;4;1;TrialProc;967;1580;Po2_B;83;1724;1806;ListFischi1;0;;2;201;115181;12;15;1753;116934;585;1;1753;1;591;590;1168;1;1
TMS_Ibrahim;43;4;"<?xml version=""1.0""?>\n<Clock xmlns:dt=""urn:schemas-microsoft-com:datatypes""><Description dt:dt=""string"">E-Prime Primary Realtime Clock</Description><StartTime><Timestamp dt:dt=""int"">0</Timestamp><DateUtc dt:dt=""string"">2022-10-27T10:11:08Z</DateUtc></StartTime><FrequencyChanges><FrequencyChange><Frequency dt:dt=""r8"">3312871</Frequency><Timestamp dt:dt=""r8"">27135784456</Timestamp><Current dt:dt=""r8"">0</Current><DateUtc dt:dt=""string"">2022-10-27T10:11:08Z</DateUtc></FrequencyChange></FrequencyChanges></Clock>\n";TMS_Ibrahim-43-4;75.029;1.0.0.561;1;;1366645655;2.0.10.242;2.0.10.242;10-27-2022;27/10/2022 10:11;12:11:09;2.0.10.147;0;;-999999;15;13541;0;1;1197;14738;1;1;1;2;1;0;1;BlockProcFischi;BlockList;1;150;0;;-999999;13;17011;0;1;3725;20736;1;1;1;1;ProcFischi1;ListBlockFischi;15;1;2;0;0;3;Pr5_B;200;3;ug;3;2;20;1;15;3;1;TrialProc;713;680;Pr5_B;175;1454;1279;ListFischi1;0;;2;203;122398;18;133;1720;124118;456;1;1480;1;721;256;1024;1;1
TMS_Ibrahim;43;4;"<?xml version=""1.0""?>\n<Clock xmlns:dt=""urn:schemas-microsoft-com:datatypes""><Description dt:dt=""string"">E-Prime Primary Realtime Clock</Description><StartTime><Timestamp dt:dt=""int"">0</Timestamp><DateUtc dt:dt=""string"">2022-10-27T10:11:08Z</DateUtc></StartTime><FrequencyChanges><FrequencyChange><Frequency dt:dt=""r8"">3312871</Frequency><Timestamp dt:dt=""r8"">27135784456</Timestamp><Current dt:dt=""r8"">0</Current><DateUtc dt:dt=""string"">2022-10-27T10:11:08Z</DateUtc></FrequencyChange></FrequencyChanges></Clock>\n";TMS_Ibrahim-43-4;75.029;1.0.0.561;1;;1366645655;2.0.10.242;2.0.10.242;10-27-2022;27/10/2022 10:11;12:11:09;2.0.10.147;0;;-999999;15;13541;0;1;1197;14738;1;1;1;2;1;0;1;BlockProcFischi;BlockList;1;150;0;;-999999;13;17011;0;1;3725;20736;1;1;1;1;ProcFischi1;ListBlockFischi;16;1;2;0;0;5;Pr4_B;225;1;op;5;2;8;1;16;1;0;TrialProc;2237;668;Pr4_B;100;1340;1240;ListFischi1;0;;2;201;129169;5;15;1365;130534;373;1;1365;1;932;401;992;1;1
TMS_Ibrahim;43;4;"<?xml version=""1.0""?>\n<Clock xmlns:dt=""urn:schemas-microsoft-com:datatypes""><Description dt:dt=""string"">E-Prime Primary Realtime Clock</Description><StartTime><Timestamp dt:dt=""int"">0</Timestamp><DateUtc dt:dt=""string"">2022-10-27T10:11:08Z</DateUtc></StartTime><FrequencyChanges><FrequencyChange><Frequency dt:dt=""r8"">3312871</Frequency><Timestamp dt:dt=""r8"">27135784456</Timestamp><Current dt:dt=""r8"">0</Current><DateUtc dt:dt=""string"">2022-10-27T10:11:08Z</DateUtc></FrequencyChange></FrequencyChanges></Clock>\n";TMS_Ibrahim-43-4;75.029;1.0.0.561;1;;1366645655;2.0.10.242;2.0.10.242;10-27-2022;27/10/2022 10:11;12:11:09;2.0.10.147;0;;-999999;15;13541;0;1;1197;14738;1;1;1;2;1;0;1;BlockProcFischi;BlockList;1;150;0;;-999999;13;17011;0;1;3725;20736;1;1;1;1;ProcFischi1;ListBlockFischi;17;1;1;0;1;3;Po8_B;175;2;op;3;2;42;1;17;2;0;TrialProc;657;1248;Po8_B;15;1598;1582;ListFischi1;0;;2;203;136371;13;133;1698;138069;547;1;1618;1;1004;402;1071;1;1
TMS_Ibrahim;43;4;"<?xml version=""1.0""?>\n<Clock xmlns:dt=""urn:schemas-microsoft-com:datatypes""><Description dt:dt=""string"">E-Prime Primary Realtime Clock</Description><StartTime><Timestamp dt:dt=""int"">0</Timestamp><DateUtc dt:dt=""string"">2022-10-27T10:11:08Z</DateUtc></StartTime><FrequencyChanges><FrequencyChange><Frequency dt:dt=""r8"">3312871</Frequency><Timestamp dt:dt=""r8"">27135784456</Timestamp><Current dt:dt=""r8"">0</Current><DateUtc dt:dt=""string"">2022-10-27T10:11:08Z</DateUtc></FrequencyChange></FrequencyChanges></Clock>\n";TMS_Ibrahim-43-4;75.029;1.0.0.561;1;;1366645655;2.0.10.242;2.0.10.242;10-27-2022;27/10/2022 10:11;12:11:09;2.0.10.147;0;;-999999;15;13541;0;1;1197;14738;1;1;1;2;1;0;1;BlockProcFischi;BlockList;1;150;0;;-999999;13;17011;0;1;3725;20736;1;1;1;1;ProcFischi1;ListBlockFischi;18;1;1;0;0;3;Po4_B;150;2;op;3;2;40;1;18;2;0;TrialProc;595;1342;Po4_B;116;1600;1716;ListFischi1;0;;2;201;143807;14;13;1622;145429;774;1;1622;1;761;524;848;1;1
TMS_Ibrahim;43;4;"<?xml version=""1.0""?>\n<Clock xmlns:dt=""urn:schemas-microsoft-com:datatypes""><Description dt:dt=""string"">E-Prime Primary Realtime Clock</Description><StartTime><Timestamp dt:dt=""int"">0</Timestamp><DateUtc dt:dt=""string"">2022-10-27T10:11:08Z</DateUtc></StartTime><FrequencyChanges><FrequencyChange><Frequency dt:dt=""r8"">3312871</Frequency><Timestamp dt:dt=""r8"">27135784456</Timestamp><Current dt:dt=""r8"">0</Current><DateUtc dt:dt=""string"">2022-10-27T10:11:08Z</DateUtc></FrequencyChange></FrequencyChanges></Clock>\n";TMS_Ibrahim-43-4;75.029;1.0.0.561;1;;1366645655;2.0.10.242;2.0.10.242;10-27-2022;27/10/2022 10:11;12:11:09;2.0.10.147;0;;-999999;15;13541;0;1;1197;14738;1;1;1;2;1;0;1;BlockProcFischi;BlockList;1;150;0;;-999999;13;17011;0;1;3725;20736;1;1;1;1;ProcFischi1;ListBlockFischi;19;1;1;0;0;5;Po8_B;125;4;ug;5;2;53;1;19;4;1;TrialProc;1603;1244;Po8_B;2;1579;1578;ListFischi1;0;;2;203;151422;10;15;1607;153029;551;1;1607;1;585;523;1056;1;1
TMS_Ibrahim;43;4;"<?xml version=""1.0""?>\n<Clock xmlns:dt=""urn:schemas-microsoft-com:datatypes""><Description dt:dt=""string"">E-Prime Primary Realtime Clock</Description><StartTime><Timestamp dt:dt=""int"">0</Timestamp><DateUtc dt:dt=""string"">2022-10-27T10:11:08Z</DateUtc></StartTime><FrequencyChanges><FrequencyChange><Frequency dt:dt=""r8"">3312871</Frequency><Timestamp dt:dt=""r8"">27135784456</Timestamp><Current dt:dt=""r8"">0</Current><DateUtc dt:dt=""string"">2022-10-27T10:11:08Z</DateUtc></FrequencyChange></FrequencyChanges></Clock>\n";TMS_Ibrahim-43-4;75.029;1.0.0.561;1;;1366645655;2.0.10.242;2.0.10.242;10-27-2022;27/10/2022 10:11;12:11:09;2.0.10.147;0;;-999999;15;13541;0;1;1197;14738;1;1;1;2;1;0;1;BlockProcFischi;BlockList;1;150;0;;-999999;13;17011;0;1;3725;20736;1;1;1;1;ProcFischi1;ListBlockFischi;20;1;1;0;0;3;Po3_B;125;2;op;3;2;44;1;20;2;0;TrialProc;1152;1315;Po3_B;183;1399;1582;ListFischi1;0;;2;201;158722;14;13;1427;160149;467;1;1427;1;668;287;960;1;1
TMS_Ibrahim;43;4;"<?xml version=""1.0""?>\n<Clock xmlns:dt=""urn:schemas-microsoft-com:datatypes""><Description dt:dt=""string"">E-Prime Primary Realtime Clock</Description><StartTime><Timestamp dt:dt=""int"">0</Timestamp><DateUtc dt:dt=""string"">2022-10-27T10:11:08Z</DateUtc></StartTime><FrequencyChanges><FrequencyChange><Frequency dt:dt=""r8"">3312871</Frequency><Timestamp dt:dt=""r8"">27135784456</Timestamp><Current dt:dt=""r8"">0</Current><DateUtc dt:dt=""string"">2022-10-27T10:11:08Z</DateUtc></FrequencyChange></FrequencyChanges></Clock>\n";TMS_Ibrahim-43-4;75.029;1.0.0.561;1;;1366645655;2.0.10.242;2.0.10.242;10-27-2022;27/10/2022 10:11;12:11:09;2.0.10.147;0;;-999999;15;13541;0;1;1197;14738;1;1;1;2;1;0;1;BlockProcFischi;BlockList;1;150;0;;-999999;13;17011;0;1;3725;20736;1;1;1;1;ProcFischi1;ListBlockFischi;21;1;1;0;0;5;Po5_B;100;4;ug;5;2;52;1;21;4;1;TrialProc;710;1007;Po5_B;49;1425;1474;ListFischi1;0;;2;203;166306;13;155;1826;168132;499;1;1458;1;425;323;959;1;1
TMS_Ibrahim;43;4;"<?xml version=""1.0""?>\n<Clock xmlns:dt=""urn:schemas-microsoft-com:datatypes""><Description dt:dt=""string"">E-Prime Primary Realtime Clock</Description><StartTime><Timestamp dt:dt=""int"">0</Timestamp><DateUtc dt:dt=""string"">2022-10-27T10:11:08Z</DateUtc></StartTime><FrequencyChanges><FrequencyChange><Frequency dt:dt=""r8"">3312871</Frequency><Timestamp dt:dt=""r8"">27135784456</Timestamp><Current dt:dt=""r8"">0</Current><DateUtc dt:dt=""string"">2022-10-27T10:11:08Z</DateUtc></FrequencyChange></FrequencyChanges></Clock>\n";TMS_Ibrahim-43-4;75.029;1.0.0.561;1;;1366645655;2.0.10.242;2.0.10.242;10-27-2022;27/10/2022 10:11;12:11:09;2.0.10.147;0;;-999999;15;13541;0;1;1197;14738;1;1;1;2;1;0;1;BlockProcFischi;BlockList;1;150;0;;-999999;13;17011;0;1;3725;20736;1;1;1;1;ProcFischi1;ListBlockFischi;22;0;2;0;0;5;Pr3_B;;1;op;1;2;12;1;22;1;0;TrialProc;1197;718;Pr3_B;302;2018;1717;ListFischi1;0;;2;201;173421;15;15;2055;175476;696;1;1;1;288;316;-695;1;0
TMS_Ibrahim;43;4;"<?xml version=""1.0""?>\n<Clock xmlns:dt=""urn:schemas-microsoft-com:datatypes""><Description dt:dt=""string"">E-Prime Primary Realtime Clock</Description><StartTime><Timestamp dt:dt=""int"">0</Timestamp><DateUtc dt:dt=""string"">2022-10-27T10:11:08Z</DateUtc></StartTime><FrequencyChanges><FrequencyChange><Frequency dt:dt=""r8"">3312871</Frequency><Timestamp dt:dt=""r8"">27135784456</Timestamp><Current dt:dt=""r8"">0</Current><DateUtc dt:dt=""string"">2022-10-27T10:11:08Z</DateUtc></FrequencyChange></FrequencyChanges></Clock>\n";TMS_Ibrahim-43-4;75.029;1.0.0.561;1;;1366645655;2.0.10.242;2.0.10.242;10-27-2022;27/10/2022 10:11;12:11:09;2.0.10.147;0;;-999999;15;13541;0;1;1197;14738;1;1;1;2;1;0;1;BlockProcFischi;BlockList;1;150;0;;-999999;13;17011;0;1;3725;20736;1;1;1;1;ProcFischi1;ListBlockFischi;23;1;2;0;0;3;Pr5_B;200;3;ug;3;2;30;1;23;3;1;TrialProc;896;672;Pr5_B;165;1435;1271;ListFischi1;0;;2;203;180544;10;13;1460;182004;452;1;1460;1;333;511;1008;1;1
TMS_Ibrahim;43;4;"<?xml version=""1.0""?>\n<Clock xmlns:dt=""urn:schemas-microsoft-com:datatypes""><Description dt:dt=""string"">E-Prime Primary Realtime Clock</Description><StartTime><Timestamp dt:dt=""int"">0</Timestamp><DateUtc dt:dt=""string"">2022-10-27T10:11:08Z</DateUtc></StartTime><FrequencyChanges><FrequencyChange><Frequency dt:dt=""r8"">3312871</Frequency><Timestamp dt:dt=""r8"">27135784456</Timestamp><Current dt:dt=""r8"">0</Current><DateUtc dt:dt=""string"">2022-10-27T10:11:08Z</DateUtc></FrequencyChange></FrequencyChanges></Clock>\n";TMS_Ibrahim-43-4;75.029;1.0.0.561;1;;1366645655;2.0.10.242;2.0.10.242;10-27-2022;27/10/2022 10:11;12:11:09;2.0.10.147;0;;-999999;15;13541;0;1;1197;14738;1;1;1;2;1;0;1;BlockProcFischi;BlockList;1;150;0;;-999999;13;17011;0;1;3725;20736;1;1;1;1;ProcFischi1;ListBlockFischi;24;1;2;0;0;3;Pr4_B;175;3;ug;3;2;24;1;24;3;1;TrialProc;2001;674;Pr4_B;85;1331;1247;ListFischi1;0;;2;201;187886;12;13;1366;189252;326;1;1366;1;402;456;1040;1;1
TMS_Ibrahim;43;4;"<?xml version=""1.0""?>\n<Clock xmlns:dt=""urn:schemas-microsoft-com:datatypes""><Description dt:dt=""string"">E-Prime Primary Realtime Clock</Description><StartTime><Timestamp dt:dt=""int"">0</Timestamp><DateUtc dt:dt=""string"">2022-10-27T10:11:08Z</DateUtc></StartTime><FrequencyChanges><FrequencyChange><Frequency dt:dt=""r8"">3312871</Frequency><Timestamp dt:dt=""r8"">27135784456</Timestamp><Current dt:dt=""r8"">0</Current><DateUtc dt:dt=""string"">2022-10-27T10:11:08Z</DateUtc></FrequencyChange></FrequencyChanges></Clock>\n";TMS_Ibrahim-43-4;75.029;1.0.0.561;1;;1366645655;2.0.10.242;2.0.10.242;10-27-2022;27/10/2022 10:11;12:11:09;2.0.10.147;0;;-999999;15;13541;0;1;1197;14738;1;1;1;2;1;0;1;BlockProcFischi;BlockList;1;150;0;;-999999;13;17011;0;1;3725;20736;1;1;1;1;ProcFischi1;ListBlockFischi;25;1;1;0;1;3;Po3_B;125;2;op;3;2;39;1;25;2;0;TrialProc;725;1311;Po3_B;110;1467;1578;ListFischi1;0;;2;203;194845;10;13;1495;196340;423;1;1495;1;421;254;1072;1;1
TMS_Ibrahim;43;4;"<?xml version=""1.0""?>\n<Clock xmlns:dt=""urn:schemas-microsoft-com:datatypes""><Description dt:dt=""string"">E-Prime Primary Realtime Clock</Description><StartTime><Timestamp dt:dt=""int"">0</Timestamp><DateUtc dt:dt=""string"">2022-10-27T10:11:08Z</DateUtc></StartTime><FrequencyChanges><FrequencyChange><Frequency dt:dt=""r8"">3312871</Frequency><Timestamp dt:dt=""r8"">27135784456</Timestamp><Current dt:dt=""r8"">0</Current><DateUtc dt:dt=""string"">2022-10-27T10:11:08Z</DateUtc></FrequencyChange></FrequencyChanges></Clock>\n";TMS_Ibrahim-43-4;75.029;1.0.0.561;1;;1366645655;2.0.10.242;2.0.10.242;10-27-2022;27/10/2022 10:11;12:11:09;2.0.10.147;0;;-999999;15;13541;0;1;1197;14738;1;1;1;2;1;0;1;BlockProcFischi;BlockList;1;150;0;;-999999;13;17011;0;1;3725;20736;1;1;1;1;ProcFischi1;ListBlockFischi;26;1;2;1;0;5;Prmod_B;200;1;op;5;2;16;1;26;1;0;TrialProc;651;1314;Prmod_B;196;1842;1647;ListFischi1;0;;2;203;202200;12;15;1867;204067;603;1;1867;1;451;334;1264;1;1
TMS_Ibrahim;43;4;"<?xml version=""1.0""?>\n<Clock xmlns:dt=""urn:schemas-microsoft-com:datatypes""><Description dt:dt=""string"">E-Prime Primary Realtime Clock</Description><StartTime><Timestamp dt:dt=""int"">0</Timestamp><DateUtc dt:dt=""string"">2022-10-27T10:11:08Z</DateUtc></StartTime><FrequencyChanges><FrequencyChange><Frequency dt:dt=""r8"">3312871</Frequency><Timestamp dt:dt=""r8"">27135784456</Timestamp><Current dt:dt=""r8"">0</Current><DateUtc dt:dt=""string"">2022-10-27T10:11:08Z</DateUtc></FrequencyChange></FrequencyChanges></Clock>\n";TMS_Ibrahim-43-4;75.029;1.0.0.561;1;;1366645655;2.0.10.242;2.0.10.242;10-27-2022;27/10/2022 10:11;12:11:09;2.0.10.147;0;;-999999;15;13541;0;1;1197;14738;1;1;1;2;1;0;1;BlockProcFischi;BlockList;1;150;0;;-999999;13;17011;0;1;3725;20736;1;1;1;1;ProcFischi1;ListBlockFischi;27;1;2;0;0;3;Pr2_B;150;3;ug;3;2;17;1;27;3;1;TrialProc;801;712;Pr2_B;218;1464;1246;ListFischi1;0;;2;201;209025;11;13;1490;210515;498;1;1490;1;410;559;992;1;1
TMS_Ibrahim;43;4;"<?xml version=""1.0""?>\n<Clock xmlns:dt=""urn:schemas-microsoft-com:datatypes""><Description dt:dt=""string"">E-Prime Primary Realtime Clock</Description><StartTime><Timestamp dt:dt=""int"">0</Timestamp><DateUtc dt:dt=""string"">2022-10-27T10:11:08Z</DateUtc></StartTime><FrequencyChanges><FrequencyChange><Frequency dt:dt=""r8"">3312871</Frequency><Timestamp dt:dt=""r8"">27135784456</Timestamp><Current dt:dt=""r8"">0</Current><DateUtc dt:dt=""string"">2022-10-27T10:11:08Z</DateUtc></FrequencyChange></FrequencyChanges></Clock>\n";TMS_Ibrahim-43-4;75.029;1.0.0.561;1;;1366645655;2.0.10.242;2.0.10.242;10-27-2022;27/10/2022 10:11;12:11:09;2.0.10.147;0;;-999999;15;13541;0;1;1197;14738;1;1;1;2;1;0;1;BlockProcFischi;BlockList;1;150;0;;-999999;13;17011;0;1;3725;20736;1;1;1;1;ProcFischi1;ListBlockFischi;28;1;2;0;1;3;Pr2_B;150;3;ug;3;2;22;1;28;3;1;TrialProc;724;709;Pr2_B;151;1394;1243;ListFischi1;0;;2;203;216051;9;13;1424;217475;496;1;1424;1;625;308;928;1;1
TMS_Ibrahim;43;4;"<?xml version=""1.0""?>\n<Clock xmlns:dt=""urn:schemas-microsoft-com:datatypes""><Description dt:dt=""string"">E-Prime Primary Realtime Clock</Description><StartTime><Timestamp dt:dt=""int"">0</Timestamp><DateUtc dt:dt=""string"">2022-10-27T10:11:08Z</DateUtc></StartTime><FrequencyChanges><FrequencyChange><Frequency dt:dt=""r8"">3312871</Frequency><Timestamp dt:dt=""r8"">27135784456</Timestamp><Current dt:dt=""r8"">0</Current><DateUtc dt:dt=""string"">2022-10-27T10:11:08Z</DateUtc></FrequencyChange></FrequencyChanges></Clock>\n";TMS_Ibrahim-43-4;75.029;1.0.0.561;1;;1366645655;2.0.10.242;2.0.10.242;10-27-2022;27/10/2022 10:11;12:11:09;2.0.10.147;0;;-999999;15;13541;0;1;1197;14738;1;1;1;2;1;0;1;BlockProcFischi;BlockList;1;150;0;;-999999;13;17011;0;1;3725;20736;1;1;1;1;ProcFischi1;ListBlockFischi;29;1;1;0;1;3;Po4_B;125;2;op;3;2;45;1;29;2;0;TrialProc;906;1339;Po4_B;107;1606;1713;ListFischi1;0;;2;201;223300;10;13;1631;224931;607;1;1631;1;755;343;1024;1;1
TMS_Ibrahim;43;4;"<?xml version=""1.0""?>\n<Clock xmlns:dt=""urn:schemas-microsoft-com:datatypes""><Description dt:dt=""string"">E-Prime Primary Realtime Clock</Description><StartTime><Timestamp dt:dt=""int"">0</Timestamp><DateUtc dt:dt=""string"">2022-10-27T10:11:08Z</DateUtc></StartTime><FrequencyChanges><FrequencyChange><Frequency dt:dt=""r8"">3312871</Frequency><Timestamp dt:dt=""r8"">27135784456</Timestamp><Current dt:dt=""r8"">0</Current><DateUtc dt:dt=""string"">2022-10-27T10:11:08Z</DateUtc></FrequencyChange></FrequencyChanges></Clock>\n";TMS_Ibrahim-43-4;75.029;1.0.0.561;1;;1366645655;2.0.10.242;2.0.10.242;10-27-2022;27/10/2022 10:11;12:11:09;2.0.10.147;0;;-999999;15;13541;0;1;1197;14738;1;1;1;2;1;0;1;BlockProcFischi;BlockList;1;150;0;;-999999;13;17011;0;1;3725;20736;1;1;1;1;ProcFischi1;ListBlockFischi;30;1;2;0;0;5;Pr2_B;200;1;op;5;2;11;1;30;1;0;TrialProc;1366;712;Pr2_B;371;1615;1245;ListFischi1;0;;2;203;230858;9;15;1640;232498;505;1;1640;1;966;382;1135;1;1
TMS_Ibrahim;43;4;"<?xml version=""1.0""?>\n<Clock xmlns:dt=""urn:schemas-microsoft-com:datatypes""><Description dt:dt=""string"">E-Prime Primary Realtime Clock</Description><StartTime><Timestamp dt:dt=""int"">0</Timestamp><DateUtc dt:dt=""string"">2022-10-27T10:11:08Z</DateUtc></StartTime><FrequencyChanges><FrequencyChange><Frequency dt:dt=""r8"">3312871</Frequency><Timestamp dt:dt=""r8"">27135784456</Timestamp><Current dt:dt=""r8"">0</Current><DateUtc dt:dt=""string"">2022-10-27T10:11:08Z</DateUtc></FrequencyChange></FrequencyChanges></Clock>\n";TMS_Ibrahim-43-4;75.029;1.0.0.561;1;;1366645655;2.0.10.242;2.0.10.242;10-27-2022;27/10/2022 10:11;12:11:09;2.0.10.147;0;;-999999;15;13541;0;1;1197;14738;1;1;1;2;1;0;1;BlockProcFischi;BlockList;1;150;0;;-999999;13;17011;0;1;3725;20736;1;1;1;1;ProcFischi1;ListBlockFischi;31;1;2;0;1;5;Pr5_B;200;1;op;5;2;4;1;31;1;0;TrialProc;759;676;Pr5_B;289;1565;1275;ListFischi1;0;;2;201;237892;13;155;1710;239602;638;1;1598;1;333;330;960;1;1
TMS_Ibrahim;43;4;"<?xml version=""1.0""?>\n<Clock xmlns:dt=""urn:schemas-microsoft-com:datatypes""><Description dt:dt=""string"">E-Prime Primary Realtime Clock</Description><StartTime><Timestamp dt:dt=""int"">0</Timestamp><DateUtc dt:dt=""string"">2022-10-27T10:11:08Z</DateUtc></StartTime><FrequencyChanges><FrequencyChange><Frequency dt:dt=""r8"">3312871</Frequency><Timestamp dt:dt=""r8"">27135784456</Timestamp><Current dt:dt=""r8"">0</Current><DateUtc dt:dt=""string"">2022-10-27T10:11:08Z</DateUtc></FrequencyChange></FrequencyChanges></Clock>\n";TMS_Ibrahim-43-4;75.029;1.0.0.561;1;;1366645655;2.0.10.242;2.0.10.242;10-27-2022;27/10/2022 10:11;12:11:09;2.0.10.147;0;;-999999;15;13541;0;1;1197;14738;1;1;1;2;1;0;1;BlockProcFischi;BlockList;1;150;0;;-999999;13;17011;0;1;3725;20736;1;1;1;1;ProcFischi1;ListBlockFischi;32;1;2;1;2;5;Prmod_B;200;1;op;5;2;15;1;32;1;0;TrialProc;663;1311;Prmod_B;158;1801;1644;ListFischi1;0;;2;203;244866;9;15;1824;246690;498;1;1824;1;426;360;1326;1;1
TMS_Ibrahim;43;4;"<?xml version=""1.0""?>\n<Clock xmlns:dt=""urn:schemas-microsoft-com:datatypes""><Description dt:dt=""string"">E-Prime Primary Realtime Clock</Description><StartTime><Timestamp dt:dt=""int"">0</Timestamp><DateUtc dt:dt=""string"">2022-10-27T10:11:08Z</DateUtc></StartTime><FrequencyChanges><FrequencyChange><Frequency dt:dt=""r8"">3312871</Frequency><Timestamp dt:dt=""r8"">27135784456</Timestamp><Current dt:dt=""r8"">0</Current><DateUtc dt:dt=""string"">2022-10-27T10:11:08Z</DateUtc></FrequencyChange></FrequencyChanges></Clock>\n";TMS_Ibrahim-43-4;75.029;1.0.0.561;1;;1366645655;2.0.10.242;2.0.10.242;10-27-2022;27/10/2022 10:11;12:11:09;2.0.10.147;0;;-999999;15;13541;0;1;1197;14738;1;1;1;2;1;0;1;BlockProcFischi;BlockList;1;150;0;;-999999;13;17011;0;1;3725;20736;1;1;1;1;ProcFischi1;ListBlockFischi;33;1;2;0;0;5;Pr8_B;175;1;op;5;2;5;1;33;1;0;TrialProc;905;712;Pr8_B;108;1845;1738;ListFischi1;0;;2;203;252595;11;15;1871;254466;607;1;1871;1;663;327;1264;1;1
TMS_Ibrahim;43;4;"<?xml version=""1.0""?>\n<Clock xmlns:dt=""urn:schemas-microsoft-com:datatypes""><Description dt:dt=""string"">E-Prime Primary Realtime Clock</Description><StartTime><Timestamp dt:dt=""int"">0</Timestamp><DateUtc dt:dt=""string"">2022-10-27T10:11:08Z</DateUtc></StartTime><FrequencyChanges><FrequencyChange><Frequency dt:dt=""r8"">3312871</Frequency><Timestamp dt:dt=""r8"">27135784456</Timestamp><Current dt:dt=""r8"">0</Current><DateUtc dt:dt=""string"">2022-10-27T10:11:08Z</DateUtc></FrequencyChange></FrequencyChanges></Clock>\n";TMS_Ibrahim-43-4;75.029;1.0.0.561;1;;1366645655;2.0.10.242;2.0.10.242;10-27-2022;27/10/2022 10:11;12:11:09;2.0.10.147;0;;-999999;15;13541;0;1;1197;14738;1;1;1;2;1;0;1;BlockProcFischi;BlockList;1;150;0;;-999999;13;17011;0;1;3725;20736;1;1;1;1;ProcFischi1;ListBlockFischi;34;1;1;0;0;5;Po2_B;75;4;ug;5;2;49;1;34;4;1;TrialProc;649;1581;Po2_B;140;1669;1808;ListFischi1;0;;2;201;259922;14;15;1696;261618;799;1;1696;1;1612;327;897;1;1
TMS_Ibrahim;43;4;"<?xml version=""1.0""?>\n<Clock xmlns:dt=""urn:schemas-microsoft-com:datatypes""><Description dt:dt=""string"">E-Prime Primary Realtime Clock</Description><StartTime><Timestamp dt:dt=""int"">0</Timestamp><DateUtc dt:dt=""string"">2022-10-27T10:11:08Z</DateUtc></StartTime><FrequencyChanges><FrequencyChange><Frequency dt:dt=""r8"">3312871</Frequency><Timestamp dt:dt=""r8"">27135784456</Timestamp><Current dt:dt=""r8"">0</Current><DateUtc dt:dt=""string"">2022-10-27T10:11:08Z</DateUtc></FrequencyChange></FrequencyChanges></Clock>\n";TMS_Ibrahim-43-4;75.029;1.0.0.561;1;;1366645655;2.0.10.242;2.0.10.242;10-27-2022;27/10/2022 10:11;12:11:09;2.0.10.147;0;;-999999;15;13541;0;1;1197;14738;1;1;1;2;1;0;1;BlockProcFischi;BlockList;1;150;0;;-999999;13;17011;0;1;3725;20736;1;1;1;1;ProcFischi1;ListBlockFischi;35;1;1;0;1;5;Po4_B;75;4;ug;5;2;56;1;35;4;1;TrialProc;852;1345;Po4_B;128;1591;1719;ListFischi1;0;;2;203;267129;18;15;1624;268753;696;1;1624;1;844;429;928;1;1
TMS_Ibrahim;43;4;"<?xml version=""1.0""?>\n<Clock xmlns:dt=""urn:schemas-microsoft-com:datatypes""><Description dt:dt=""string"">E-Prime Primary Realtime Clock</Description><StartTime><Timestamp dt:dt=""int"">0</Timestamp><DateUtc dt:dt=""string"">2022-10-27T10:11:08Z</DateUtc></StartTime><FrequencyChanges><FrequencyChange><Frequency dt:dt=""r8"">3312871</Frequency><Timestamp dt:dt=""r8"">27135784456</Timestamp><Current dt:dt=""r8"">0</Current><DateUtc dt:dt=""string"">2022-10-27T10:11:08Z</DateUtc></FrequencyChange></FrequencyChanges></Clock>\n";TMS_Ibrahim-43-4;75.029;1.0.0.561;1;;1366645655;2.0.10.242;2.0.10.242;10-27-2022;27/10/2022 10:11;12:11:09;2.0.10.147;0;;-999999;15;13541;0;1;1197;14738;1;1;1;2;1;0;1;BlockProcFischi;BlockList;1;150;0;;-999999;13;17011;0;1;3725;20736;1;1;1;1;ProcFischi1;ListBlockFischi;36;1;2;0;0;5;Pr3_B;150;1;op;5;2;7;1;36;1;0;TrialProc;711;712;Pr3_B;106;1818;1712;ListFischi1;0;;2;201;274333;11;15;1844;276177;740;1;1844;1;543;335;1104;1;1
