ExperimentName;Subject;Session;Clock.Information;DataFile.Basename;Display.RefreshRate;ExperimentVersion;Group;Name;RandomSeed;RuntimeVersion;RuntimeVersionExpected;SessionDate;SessionStartDateTimeUtc;SessionTime;StudioVersion;SyncEprimeKinB1.ACC;SyncEprimeKinB1.CRESP;SyncEprimeKinB1.DurationError;SyncEprimeKinB1.OnsetDelay;SyncEprimeKinB1.OnsetTime;SyncEprimeKinB1.OnsetToOnsetTime;SyncEprimeKinB1.RESP;SyncEprimeKinB1.RT;SyncEprimeKinB1.RTTime;Block;BlockINT_0Fischi_1Suoni;BlockList;BlockList.Cycle;BlockList.Sample;ContatoreSuoni;NumSuono;Procedure[Block];Running[Block];Suonilist;SuonoFinSoglia;SyncEprimeKinFischi1.ACC;SyncEprimeKinFischi1.CRESP;SyncEprimeKinFischi1.DurationError;SyncEprimeKinFischi1.OnsetDelay;SyncEprimeKinFischi1.OnsetTime;SyncEprimeKinFischi1.OnsetToOnsetTime;SyncEprimeKinFischi1.RESP;SyncEprimeKinFischi1.RT;SyncEprimeKinFischi1.RTTime;Trial;ListBlockFischi;ListBlockFischi.Cycle;ListBlockFischi.Sample;Procedure[Trial];Running[Trial];SubTrial;AccSogg1;Avatar_Giu1_Su2;CatchTrial_CORR;ContatoreFinestraSoglia;CorrectResponse;File_Name;FinestraSoglia;IdcondEEG;Istruzione;KeySoggetto1;KeySoggetto2;ListFischi1;ListFischi1.Cycle;ListFischi1.Sample;NumeroSuono;OP_UG;Procedure[SubTrial];Resoconto.RT;RTChange;RTimage;RTNetto;RTSubj;RTTouch;Running[SubTrial];StartGo.ACC;StartGo.CRESP;StartGo.DurationError;StartGo.OnsetDelay;StartGo.OnsetTime;StartGo.OnsetToOnsetTime;StartGo.RESP;StartGo.RT;StartGo.RTTime;StartSoggetto1;StartSoggetto2;StopSoggetto1;StopSoggetto2;StopTrial.RT;tempo;TMSoggetto1;ValiditaTrial;Vincitore
TMS_Ibrahim;44;1;"<?xml version=""1.0""?>\n<Clock xmlns:dt=""urn:schemas-microsoft-com:datatypes""><Description dt:dt=""string"">E-Prime Primary Realtime Clock</Description><StartTime><Timestamp dt:dt=""int"">0</Timestamp><DateUtc dt:dt=""string"">2022-11-07T14:06:45Z</DateUtc></StartTime><FrequencyChanges><FrequencyChange><Frequency dt:dt=""r8"">3312890</Frequency><Timestamp dt:dt=""r8"">12213188206</Timestamp><Current dt:dt=""r8"">0</Current><DateUtc dt:dt=""string"">2022-11-07T14:06:45Z</DateUtc></FrequencyChange></FrequencyChanges></Clock>\n";TMS_Ibrahim-44-1;75.028;1.0.0.561;1;v;-671055823;2.0.10.242;2.0.10.242;11/07/2022;07/11/2022 14:06;15:06:45;2.0.10.147;0;;-999999;42;29728;0;1;2332;32060;1;1;1;2;1;0;1;BlockProcFischi;BlockList;1;100;0;;-999999;32;33856;0;1;1422;35278;1;1;1;1;ProcFischi1;ListBlockFischi;1;1;2;0;0;3;Pr3_B;250;3;ug;3;2;23;1;1;3;1;TrialProc;865;741;Pr3_B;111;1630;1740;ListFischi1;0;;5;210;37308;28;13;1664;38972;528;1;1664;1;613;355;1136;1;1
TMS_Ibrahim;44;1;"<?xml version=""1.0""?>\n<Clock xmlns:dt=""urn:schemas-microsoft-com:datatypes""><Description dt:dt=""string"">E-Prime Primary Realtime Clock</Description><StartTime><Timestamp dt:dt=""int"">0</Timestamp><DateUtc dt:dt=""string"">2022-11-07T14:06:45Z</DateUtc></StartTime><FrequencyChanges><FrequencyChange><Frequency dt:dt=""r8"">3312890</Frequency><Timestamp dt:dt=""r8"">12213188206</Timestamp><Current dt:dt=""r8"">0</Current><DateUtc dt:dt=""string"">2022-11-07T14:06:45Z</DateUtc></FrequencyChange></FrequencyChanges></Clock>\n";TMS_Ibrahim-44-1;75.028;1.0.0.561;1;v;-671055823;2.0.10.242;2.0.10.242;11/07/2022;07/11/2022 14:06;15:06:45;2.0.10.147;0;;-999999;42;29728;0;1;2332;32060;1;1;1;2;1;0;1;BlockProcFischi;BlockList;1;100;0;;-999999;32;33856;0;1;1422;35278;1;1;1;1;ProcFischi1;ListBlockFischi;2;1;2;0;0;3;Pr3_B;225;3;ug;3;2;28;1;2;3;1;TrialProc;531;717;Pr3_B;221;1936;1716;ListFischi1;0;;2;205;45772;14;13;1968;47740;256;1;1968;1;738;369;1712;1;1
TMS_Ibrahim;44;1;"<?xml version=""1.0""?>\n<Clock xmlns:dt=""urn:schemas-microsoft-com:datatypes""><Description dt:dt=""string"">E-Prime Primary Realtime Clock</Description><StartTime><Timestamp dt:dt=""int"">0</Timestamp><DateUtc dt:dt=""string"">2022-11-07T14:06:45Z</DateUtc></StartTime><FrequencyChanges><FrequencyChange><Frequency dt:dt=""r8"">3312890</Frequency><Timestamp dt:dt=""r8"">12213188206</Timestamp><Current dt:dt=""r8"">0</Current><DateUtc dt:dt=""string"">2022-11-07T14:06:45Z</DateUtc></FrequencyChange></FrequencyChanges></Clock>\n";TMS_Ibrahim-44-1;75.028;1.0.0.561;1;v;-671055823;2.0.10.242;2.0.10.242;11/07/2022;07/11/2022 14:06;15:06:45;2.0.10.147;0;;-999999;42;29728;0;1;2332;32060;1;1;1;2;1;0;1;BlockProcFischi;BlockList;1;100;0;;-999999;32;33856;0;1;1422;35278;1;1;1;1;ProcFischi1;ListBlockFischi;3;1;1;0;0;5;Po3_B;250;4;ug;5;2;60;1;3;4;1;TrialProc;1065;1315;Po3_B;106;1476;1582;ListFischi1;0;;2;201;53263;14;15;1500;54763;252;1;1500;1;1178;259;1248;1;1
TMS_Ibrahim;44;1;"<?xml version=""1.0""?>\n<Clock xmlns:dt=""urn:schemas-microsoft-com:datatypes""><Description dt:dt=""string"">E-Prime Primary Realtime Clock</Description><StartTime><Timestamp dt:dt=""int"">0</Timestamp><DateUtc dt:dt=""string"">2022-11-07T14:06:45Z</DateUtc></StartTime><FrequencyChanges><FrequencyChange><Frequency dt:dt=""r8"">3312890</Frequency><Timestamp dt:dt=""r8"">12213188206</Timestamp><Current dt:dt=""r8"">0</Current><DateUtc dt:dt=""string"">2022-11-07T14:06:45Z</DateUtc></FrequencyChange></FrequencyChanges></Clock>\n";TMS_Ibrahim-44-1;75.028;1.0.0.561;1;v;-671055823;2.0.10.242;2.0.10.242;11/07/2022;07/11/2022 14:06;15:06:45;2.0.10.147;0;;-999999;42;29728;0;1;2332;32060;1;1;1;2;1;0;1;BlockProcFischi;BlockList;1;100;0;;-999999;32;33856;0;1;1422;35278;1;1;1;1;ProcFischi1;ListBlockFischi;4;1;2;0;0;5;Pr5_B;250;1;op;5;2;4;1;4;1;0;TrialProc;705;670;Pr5_B;86;1355;1269;ListFischi1;0;;2;203;60972;8;15;1375;62347;255;1;1375;1;851;248;1120;1;1
TMS_Ibrahim;44;1;"<?xml version=""1.0""?>\n<Clock xmlns:dt=""urn:schemas-microsoft-com:datatypes""><Description dt:dt=""string"">E-Prime Primary Realtime Clock</Description><StartTime><Timestamp dt:dt=""int"">0</Timestamp><DateUtc dt:dt=""string"">2022-11-07T14:06:45Z</DateUtc></StartTime><FrequencyChanges><FrequencyChange><Frequency dt:dt=""r8"">3312890</Frequency><Timestamp dt:dt=""r8"">12213188206</Timestamp><Current dt:dt=""r8"">0</Current><DateUtc dt:dt=""string"">2022-11-07T14:06:45Z</DateUtc></FrequencyChange></FrequencyChanges></Clock>\n";TMS_Ibrahim-44-1;75.028;1.0.0.561;1;v;-671055823;2.0.10.242;2.0.10.242;11/07/2022;07/11/2022 14:06;15:06:45;2.0.10.147;0;;-999999;42;29728;0;1;2332;32060;1;1;1;2;1;0;1;BlockProcFischi;BlockList;1;100;0;;-999999;32;33856;0;1;1422;35278;1;1;1;1;ProcFischi1;ListBlockFischi;5;1;1;1;0;5;Pomod_B;225;4;ug;5;2;64;1;5;4;1;TrialProc;797;1307;Pomod_B;111;1778;1667;ListFischi1;0;;3;201;67970;7;15;1801;69771;457;1;1801;1;930;278;1344;1;1
TMS_Ibrahim;44;1;"<?xml version=""1.0""?>\n<Clock xmlns:dt=""urn:schemas-microsoft-com:datatypes""><Description dt:dt=""string"">E-Prime Primary Realtime Clock</Description><StartTime><Timestamp dt:dt=""int"">0</Timestamp><DateUtc dt:dt=""string"">2022-11-07T14:06:45Z</DateUtc></StartTime><FrequencyChanges><FrequencyChange><Frequency dt:dt=""r8"">3312890</Frequency><Timestamp dt:dt=""r8"">12213188206</Timestamp><Current dt:dt=""r8"">0</Current><DateUtc dt:dt=""string"">2022-11-07T14:06:45Z</DateUtc></FrequencyChange></FrequencyChanges></Clock>\n";TMS_Ibrahim-44-1;75.028;1.0.0.561;1;v;-671055823;2.0.10.242;2.0.10.242;11/07/2022;07/11/2022 14:06;15:06:45;2.0.10.147;0;;-999999;42;29728;0;1;2332;32060;1;1;1;2;1;0;1;BlockProcFischi;BlockList;1;100;0;;-999999;32;33856;0;1;1422;35278;1;1;1;1;ProcFischi1;ListBlockFischi;6;1;2;0;0;5;Pr2_B;225;1;op;5;2;1;1;6;1;0;TrialProc;1832;718;Pr2_B;133;1385;1251;ListFischi1;0;;2;203;75157;18;15;1413;76570;310;1;1413;1;757;558;1103;1;1
TMS_Ibrahim;44;1;"<?xml version=""1.0""?>\n<Clock xmlns:dt=""urn:schemas-microsoft-com:datatypes""><Description dt:dt=""string"">E-Prime Primary Realtime Clock</Description><StartTime><Timestamp dt:dt=""int"">0</Timestamp><DateUtc dt:dt=""string"">2022-11-07T14:06:45Z</DateUtc></StartTime><FrequencyChanges><FrequencyChange><Frequency dt:dt=""r8"">3312890</Frequency><Timestamp dt:dt=""r8"">12213188206</Timestamp><Current dt:dt=""r8"">0</Current><DateUtc dt:dt=""string"">2022-11-07T14:06:45Z</DateUtc></FrequencyChange></FrequencyChanges></Clock>\n";TMS_Ibrahim-44-1;75.028;1.0.0.561;1;v;-671055823;2.0.10.242;2.0.10.242;11/07/2022;07/11/2022 14:06;15:06:45;2.0.10.147;0;;-999999;42;29728;0;1;2332;32060;1;1;1;2;1;0;1;BlockProcFischi;BlockList;1;100;0;;-999999;32;33856;0;1;1422;35278;1;1;1;1;ProcFischi1;ListBlockFischi;7;1;2;0;0;5;Pr2_B;200;1;op;5;2;11;1;7;1;0;TrialProc;642;715;Pr2_B;112;1361;1249;ListFischi1;0;;2;201;82479;13;15;1387;83866;347;1;1387;1;1828;297;1040;1;1
TMS_Ibrahim;44;1;"<?xml version=""1.0""?>\n<Clock xmlns:dt=""urn:schemas-microsoft-com:datatypes""><Description dt:dt=""string"">E-Prime Primary Realtime Clock</Description><StartTime><Timestamp dt:dt=""int"">0</Timestamp><DateUtc dt:dt=""string"">2022-11-07T14:06:45Z</DateUtc></StartTime><FrequencyChanges><FrequencyChange><Frequency dt:dt=""r8"">3312890</Frequency><Timestamp dt:dt=""r8"">12213188206</Timestamp><Current dt:dt=""r8"">0</Current><DateUtc dt:dt=""string"">2022-11-07T14:06:45Z</DateUtc></FrequencyChange></FrequencyChanges></Clock>\n";TMS_Ibrahim-44-1;75.028;1.0.0.561;1;v;-671055823;2.0.10.242;2.0.10.242;11/07/2022;07/11/2022 14:06;15:06:45;2.0.10.147;0;;-999999;42;29728;0;1;2332;32060;1;1;1;2;1;0;1;BlockProcFischi;BlockList;1;100;0;;-999999;32;33856;0;1;1422;35278;1;1;1;1;ProcFischi1;ListBlockFischi;8;1;1;0;0;3;Po5_B;250;2;op;3;2;46;1;8;2;0;TrialProc;550;979;Po5_B;147;1327;1473;ListFischi1;0;;2;203;89504;12;13;1354;90858;346;1;1354;1;984;442;1008;1;1
TMS_Ibrahim;44;1;"<?xml version=""1.0""?>\n<Clock xmlns:dt=""urn:schemas-microsoft-com:datatypes""><Description dt:dt=""string"">E-Prime Primary Realtime Clock</Description><StartTime><Timestamp dt:dt=""int"">0</Timestamp><DateUtc dt:dt=""string"">2022-11-07T14:06:45Z</DateUtc></StartTime><FrequencyChanges><FrequencyChange><Frequency dt:dt=""r8"">3312890</Frequency><Timestamp dt:dt=""r8"">12213188206</Timestamp><Current dt:dt=""r8"">0</Current><DateUtc dt:dt=""string"">2022-11-07T14:06:45Z</DateUtc></FrequencyChange></FrequencyChanges></Clock>\n";TMS_Ibrahim-44-1;75.028;1.0.0.561;1;v;-671055823;2.0.10.242;2.0.10.242;11/07/2022;07/11/2022 14:06;15:06:45;2.0.10.147;0;;-999999;42;29728;0;1;2332;32060;1;1;1;2;1;0;1;BlockProcFischi;BlockList;1;100;0;;-999999;32;33856;0;1;1422;35278;1;1;1;1;ProcFischi1;ListBlockFischi;9;1;1;0;0;5;Po2_B;200;4;ug;5;2;54;1;9;4;1;TrialProc;372;1576;Po2_B;138;1664;1802;ListFischi1;0;;2;201;96959;7;1555;3835;100794;427;1;1691;1;2438;572;1264;1;1
TMS_Ibrahim;44;1;"<?xml version=""1.0""?>\n<Clock xmlns:dt=""urn:schemas-microsoft-com:datatypes""><Description dt:dt=""string"">E-Prime Primary Realtime Clock</Description><StartTime><Timestamp dt:dt=""int"">0</Timestamp><DateUtc dt:dt=""string"">2022-11-07T14:06:45Z</DateUtc></StartTime><FrequencyChanges><FrequencyChange><Frequency dt:dt=""r8"">3312890</Frequency><Timestamp dt:dt=""r8"">12213188206</Timestamp><Current dt:dt=""r8"">0</Current><DateUtc dt:dt=""string"">2022-11-07T14:06:45Z</DateUtc></FrequencyChange></FrequencyChanges></Clock>\n";TMS_Ibrahim-44-1;75.028;1.0.0.561;1;v;-671055823;2.0.10.242;2.0.10.242;11/07/2022;07/11/2022 14:06;15:06:45;2.0.10.147;0;;-999999;42;29728;0;1;2332;32060;1;1;1;2;1;0;1;BlockProcFischi;BlockList;1;100;0;;-999999;32;33856;0;1;1422;35278;1;1;1;1;ProcFischi1;ListBlockFischi;10;1;1;0;0;5;Po5_B;175;4;ug;5;2;52;1;10;4;1;TrialProc;490;976;Po5_B;161;1307;1469;ListFischi1;0;;2;203;103128;9;15;1329;104457;402;1;1329;1;931;563;927;1;1
TMS_Ibrahim;44;1;"<?xml version=""1.0""?>\n<Clock xmlns:dt=""urn:schemas-microsoft-com:datatypes""><Description dt:dt=""string"">E-Prime Primary Realtime Clock</Description><StartTime><Timestamp dt:dt=""int"">0</Timestamp><DateUtc dt:dt=""string"">2022-11-07T14:06:45Z</DateUtc></StartTime><FrequencyChanges><FrequencyChange><Frequency dt:dt=""r8"">3312890</Frequency><Timestamp dt:dt=""r8"">12213188206</Timestamp><Current dt:dt=""r8"">0</Current><DateUtc dt:dt=""string"">2022-11-07T14:06:45Z</DateUtc></FrequencyChange></FrequencyChanges></Clock>\n";TMS_Ibrahim-44-1;75.028;1.0.0.561;1;v;-671055823;2.0.10.242;2.0.10.242;11/07/2022;07/11/2022 14:06;15:06:45;2.0.10.147;0;;-999999;42;29728;0;1;2332;32060;1;1;1;2;1;0;1;BlockProcFischi;BlockList;1;100;0;;-999999;32;33856;0;1;1422;35278;1;1;1;1;ProcFischi1;ListBlockFischi;11;1;1;0;0;5;Po2_B;175;4;ug;5;2;49;1;11;4;1;TrialProc;571;1579;Po2_B;138;1668;1807;ListFischi1;0;;2;203;110750;11;15;1691;112441;539;1;1691;1;419;507;1152;1;1
TMS_Ibrahim;44;1;"<?xml version=""1.0""?>\n<Clock xmlns:dt=""urn:schemas-microsoft-com:datatypes""><Description dt:dt=""string"">E-Prime Primary Realtime Clock</Description><StartTime><Timestamp dt:dt=""int"">0</Timestamp><DateUtc dt:dt=""string"">2022-11-07T14:06:45Z</DateUtc></StartTime><FrequencyChanges><FrequencyChange><Frequency dt:dt=""r8"">3312890</Frequency><Timestamp dt:dt=""r8"">12213188206</Timestamp><Current dt:dt=""r8"">0</Current><DateUtc dt:dt=""string"">2022-11-07T14:06:45Z</DateUtc></FrequencyChange></FrequencyChanges></Clock>\n";TMS_Ibrahim-44-1;75.028;1.0.0.561;1;v;-671055823;2.0.10.242;2.0.10.242;11/07/2022;07/11/2022 14:06;15:06:45;2.0.10.147;0;;-999999;42;29728;0;1;2332;32060;1;1;1;2;1;0;1;BlockProcFischi;BlockList;1;100;0;;-999999;32;33856;0;1;1422;35278;1;1;1;1;ProcFischi1;ListBlockFischi;12;1;1;0;0;3;Po4_B;225;2;op;3;2;45;1;12;2;0;TrialProc;640;1345;Po4_B;187;1531;1718;ListFischi1;0;;2;201;118330;14;13;1551;119881;367;1;1551;1;933;394;1184;1;1
TMS_Ibrahim;44;1;"<?xml version=""1.0""?>\n<Clock xmlns:dt=""urn:schemas-microsoft-com:datatypes""><Description dt:dt=""string"">E-Prime Primary Realtime Clock</Description><StartTime><Timestamp dt:dt=""int"">0</Timestamp><DateUtc dt:dt=""string"">2022-11-07T14:06:45Z</DateUtc></StartTime><FrequencyChanges><FrequencyChange><Frequency dt:dt=""r8"">3312890</Frequency><Timestamp dt:dt=""r8"">12213188206</Timestamp><Current dt:dt=""r8"">0</Current><DateUtc dt:dt=""string"">2022-11-07T14:06:45Z</DateUtc></FrequencyChange></FrequencyChanges></Clock>\n";TMS_Ibrahim-44-1;75.028;1.0.0.561;1;v;-671055823;2.0.10.242;2.0.10.242;11/07/2022;07/11/2022 14:06;15:06:45;2.0.10.147;0;;-999999;42;29728;0;1;2332;32060;1;1;1;2;1;0;1;BlockProcFischi;BlockList;1;100;0;;-999999;32;33856;0;1;1422;35278;1;1;1;1;ProcFischi1;ListBlockFischi;13;1;2;0;0;5;Pr3_B;175;1;op;5;2;7;1;13;1;0;TrialProc;686;710;Pr3_B;102;1607;1710;ListFischi1;0;;2;203;125746;9;15;1639;127385;583;1;1639;1;422;565;1056;1;1
TMS_Ibrahim;44;1;"<?xml version=""1.0""?>\n<Clock xmlns:dt=""urn:schemas-microsoft-com:datatypes""><Description dt:dt=""string"">E-Prime Primary Realtime Clock</Description><StartTime><Timestamp dt:dt=""int"">0</Timestamp><DateUtc dt:dt=""string"">2022-11-07T14:06:45Z</DateUtc></StartTime><FrequencyChanges><FrequencyChange><Frequency dt:dt=""r8"">3312890</Frequency><Timestamp dt:dt=""r8"">12213188206</Timestamp><Current dt:dt=""r8"">0</Current><DateUtc dt:dt=""string"">2022-11-07T14:06:45Z</DateUtc></FrequencyChange></FrequencyChanges></Clock>\n";TMS_Ibrahim-44-1;75.028;1.0.0.561;1;v;-671055823;2.0.10.242;2.0.10.242;11/07/2022;07/11/2022 14:06;15:06:45;2.0.10.147;0;;-999999;42;29728;0;1;2332;32060;1;1;1;2;1;0;1;BlockProcFischi;BlockList;1;100;0;;-999999;32;33856;0;1;1422;35278;1;1;1;1;ProcFischi1;ListBlockFischi;14;1;1;0;0;3;Po3_B;200;2;op;3;2;39;1;14;2;0;TrialProc;638;1311;Po3_B;119;1458;1578;ListFischi1;0;;2;201;133062;10;133;1906;134968;450;1;1490;1;461;495;1040;1;1
TMS_Ibrahim;44;1;"<?xml version=""1.0""?>\n<Clock xmlns:dt=""urn:schemas-microsoft-com:datatypes""><Description dt:dt=""string"">E-Prime Primary Realtime Clock</Description><StartTime><Timestamp dt:dt=""int"">0</Timestamp><DateUtc dt:dt=""string"">2022-11-07T14:06:45Z</DateUtc></StartTime><FrequencyChanges><FrequencyChange><Frequency dt:dt=""r8"">3312890</Frequency><Timestamp dt:dt=""r8"">12213188206</Timestamp><Current dt:dt=""r8"">0</Current><DateUtc dt:dt=""string"">2022-11-07T14:06:45Z</DateUtc></FrequencyChange></FrequencyChanges></Clock>\n";TMS_Ibrahim-44-1;75.028;1.0.0.561;1;v;-671055823;2.0.10.242;2.0.10.242;11/07/2022;07/11/2022 14:06;15:06:45;2.0.10.147;0;;-999999;42;29728;0;1;2332;32060;1;1;1;2;1;0;1;BlockProcFischi;BlockList;1;100;0;;-999999;32;33856;0;1;1422;35278;1;1;1;1;ProcFischi1;ListBlockFischi;15;1;2;0;0;5;Pr4_B;150;1;op;5;2;8;1;15;1;0;TrialProc;733;672;Pr4_B;289;1533;1244;ListFischi1;0;;2;203;140232;10;15;1568;141800;480;1;1568;1;398;595;1088;1;1
TMS_Ibrahim;44;1;"<?xml version=""1.0""?>\n<Clock xmlns:dt=""urn:schemas-microsoft-com:datatypes""><Description dt:dt=""string"">E-Prime Primary Realtime Clock</Description><StartTime><Timestamp dt:dt=""int"">0</Timestamp><DateUtc dt:dt=""string"">2022-11-07T14:06:45Z</DateUtc></StartTime><FrequencyChanges><FrequencyChange><Frequency dt:dt=""r8"">3312890</Frequency><Timestamp dt:dt=""r8"">12213188206</Timestamp><Current dt:dt=""r8"">0</Current><DateUtc dt:dt=""string"">2022-11-07T14:06:45Z</DateUtc></FrequencyChange></FrequencyChanges></Clock>\n";TMS_Ibrahim-44-1;75.028;1.0.0.561;1;v;-671055823;2.0.10.242;2.0.10.242;11/07/2022;07/11/2022 14:06;15:06:45;2.0.10.147;0;;-999999;42;29728;0;1;2332;32060;1;1;1;2;1;0;1;BlockProcFischi;BlockList;1;100;0;;-999999;32;33856;0;1;1422;35278;1;1;1;1;ProcFischi1;ListBlockFischi;16;1;2;0;1;5;Pr5_B;150;1;op;5;2;9;1;16;1;0;TrialProc;768;673;Pr5_B;247;1519;1272;ListFischi1;0;;2;203;147215;11;15;1545;148760;473;1;1545;1;284;305;1072;1;1
TMS_Ibrahim;44;1;"<?xml version=""1.0""?>\n<Clock xmlns:dt=""urn:schemas-microsoft-com:datatypes""><Description dt:dt=""string"">E-Prime Primary Realtime Clock</Description><StartTime><Timestamp dt:dt=""int"">0</Timestamp><DateUtc dt:dt=""string"">2022-11-07T14:06:45Z</DateUtc></StartTime><FrequencyChanges><FrequencyChange><Frequency dt:dt=""r8"">3312890</Frequency><Timestamp dt:dt=""r8"">12213188206</Timestamp><Current dt:dt=""r8"">0</Current><DateUtc dt:dt=""string"">2022-11-07T14:06:45Z</DateUtc></FrequencyChange></FrequencyChanges></Clock>\n";TMS_Ibrahim-44-1;75.028;1.0.0.561;1;v;-671055823;2.0.10.242;2.0.10.242;11/07/2022;07/11/2022 14:06;15:06:45;2.0.10.147;0;;-999999;42;29728;0;1;2332;32060;1;1;1;2;1;0;1;BlockProcFischi;BlockList;1;100;0;;-999999;32;33856;0;1;1422;35278;1;1;1;1;ProcFischi1;ListBlockFischi;17;1;1;0;0;5;Po8_B;150;4;ug;5;2;58;1;17;4;1;TrialProc;863;1241;Po8_B;74;1501;1574;ListFischi1;0;;2;201;154150;7;15;1522;155672;546;1;1522;1;461;560;976;1;1
TMS_Ibrahim;44;1;"<?xml version=""1.0""?>\n<Clock xmlns:dt=""urn:schemas-microsoft-com:datatypes""><Description dt:dt=""string"">E-Prime Primary Realtime Clock</Description><StartTime><Timestamp dt:dt=""int"">0</Timestamp><DateUtc dt:dt=""string"">2022-11-07T14:06:45Z</DateUtc></StartTime><FrequencyChanges><FrequencyChange><Frequency dt:dt=""r8"">3312890</Frequency><Timestamp dt:dt=""r8"">12213188206</Timestamp><Current dt:dt=""r8"">0</Current><DateUtc dt:dt=""string"">2022-11-07T14:06:45Z</DateUtc></FrequencyChange></FrequencyChanges></Clock>\n";TMS_Ibrahim-44-1;75.028;1.0.0.561;1;v;-671055823;2.0.10.242;2.0.10.242;11/07/2022;07/11/2022 14:06;15:06:45;2.0.10.147;0;;-999999;42;29728;0;1;2332;32060;1;1;1;2;1;0;1;BlockProcFischi;BlockList;1;100;0;;-999999;32;33856;0;1;1422;35278;1;1;1;1;ProcFischi1;ListBlockFischi;18;1;1;1;0;3;Pomod_B;175;2;op;3;2;48;1;18;2;0;TrialProc;807;1311;Pomod_B;212;1883;1670;ListFischi1;0;;2;203;161624;10;131;4175;165799;560;1;1919;1;319;557;1359;1;1
TMS_Ibrahim;44;1;"<?xml version=""1.0""?>\n<Clock xmlns:dt=""urn:schemas-microsoft-com:datatypes""><Description dt:dt=""string"">E-Prime Primary Realtime Clock</Description><StartTime><Timestamp dt:dt=""int"">0</Timestamp><DateUtc dt:dt=""string"">2022-11-07T14:06:45Z</DateUtc></StartTime><FrequencyChanges><FrequencyChange><Frequency dt:dt=""r8"">3312890</Frequency><Timestamp dt:dt=""r8"">12213188206</Timestamp><Current dt:dt=""r8"">0</Current><DateUtc dt:dt=""string"">2022-11-07T14:06:45Z</DateUtc></FrequencyChange></FrequencyChanges></Clock>\n";TMS_Ibrahim-44-1;75.028;1.0.0.561;1;v;-671055823;2.0.10.242;2.0.10.242;11/07/2022;07/11/2022 14:06;15:06:45;2.0.10.147;0;;-999999;42;29728;0;1;2332;32060;1;1;1;2;1;0;1;BlockProcFischi;BlockList;1;100;0;;-999999;32;33856;0;1;1422;35278;1;1;1;1;ProcFischi1;ListBlockFischi;19;1;1;0;1;3;Po2_B;175;2;op;3;2;38;1;19;2;0;TrialProc;692;1580;Po2_B;350;1457;1806;ListFischi1;0;;2;201;168793;11;13;1486;170279;542;1;1486;1;323;204;944;1;1
TMS_Ibrahim;44;1;"<?xml version=""1.0""?>\n<Clock xmlns:dt=""urn:schemas-microsoft-com:datatypes""><Description dt:dt=""string"">E-Prime Primary Realtime Clock</Description><StartTime><Timestamp dt:dt=""int"">0</Timestamp><DateUtc dt:dt=""string"">2022-11-07T14:06:45Z</DateUtc></StartTime><FrequencyChanges><FrequencyChange><Frequency dt:dt=""r8"">3312890</Frequency><Timestamp dt:dt=""r8"">12213188206</Timestamp><Current dt:dt=""r8"">0</Current><DateUtc dt:dt=""string"">2022-11-07T14:06:45Z</DateUtc></FrequencyChange></FrequencyChanges></Clock>\n";TMS_Ibrahim-44-1;75.028;1.0.0.561;1;v;-671055823;2.0.10.242;2.0.10.242;11/07/2022;07/11/2022 14:06;15:06:45;2.0.10.147;0;;-999999;42;29728;0;1;2332;32060;1;1;1;2;1;0;1;BlockProcFischi;BlockList;1;100;0;;-999999;32;33856;0;1;1422;35278;1;1;1;1;ProcFischi1;ListBlockFischi;20;1;1;0;0;5;Po4_B;125;4;ug;5;2;51;1;20;4;1;TrialProc;609;1340;Po4_B;418;1294;1713;ListFischi1;0;;2;203;176243;12;15;1317;177560;581;1;1317;1;439;416;736;1;1
TMS_Ibrahim;44;1;"<?xml version=""1.0""?>\n<Clock xmlns:dt=""urn:schemas-microsoft-com:datatypes""><Description dt:dt=""string"">E-Prime Primary Realtime Clock</Description><StartTime><Timestamp dt:dt=""int"">0</Timestamp><DateUtc dt:dt=""string"">2022-11-07T14:06:45Z</DateUtc></StartTime><FrequencyChanges><FrequencyChange><Frequency dt:dt=""r8"">3312890</Frequency><Timestamp dt:dt=""r8"">12213188206</Timestamp><Current dt:dt=""r8"">0</Current><DateUtc dt:dt=""string"">2022-11-07T14:06:45Z</DateUtc></FrequencyChange></FrequencyChanges></Clock>\n";TMS_Ibrahim-44-1;75.028;1.0.0.561;1;v;-671055823;2.0.10.242;2.0.10.242;11/07/2022;07/11/2022 14:06;15:06:45;2.0.10.147;0;;-999999;42;29728;0;1;2332;32060;1;1;1;2;1;0;1;BlockProcFischi;BlockList;1;100;0;;-999999;32;33856;0;1;1422;35278;1;1;1;1;ProcFischi1;ListBlockFischi;21;1;1;0;1;5;Po3_B;125;4;ug;5;2;55;1;21;4;1;TrialProc;740;1312;Po3_B;278;1299;1577;ListFischi1;0;;2;201;183775;10;15;1319;185094;551;1;1319;1;631;495;768;1;1
TMS_Ibrahim;44;1;"<?xml version=""1.0""?>\n<Clock xmlns:dt=""urn:schemas-microsoft-com:datatypes""><Description dt:dt=""string"">E-Prime Primary Realtime Clock</Description><StartTime><Timestamp dt:dt=""int"">0</Timestamp><DateUtc dt:dt=""string"">2022-11-07T14:06:45Z</DateUtc></StartTime><FrequencyChanges><FrequencyChange><Frequency dt:dt=""r8"">3312890</Frequency><Timestamp dt:dt=""r8"">12213188206</Timestamp><Current dt:dt=""r8"">0</Current><DateUtc dt:dt=""string"">2022-11-07T14:06:45Z</DateUtc></FrequencyChange></FrequencyChanges></Clock>\n";TMS_Ibrahim-44-1;75.028;1.0.0.561;1;v;-671055823;2.0.10.242;2.0.10.242;11/07/2022;07/11/2022 14:06;15:06:45;2.0.10.147;0;;-999999;42;29728;0;1;2332;32060;1;1;1;2;1;0;1;BlockProcFischi;BlockList;1;100;0;;-999999;32;33856;0;1;1422;35278;1;1;1;1;ProcFischi1;ListBlockFischi;22;1;2;1;2;5;Prmod_B;150;1;op;5;2;16;1;22;1;0;TrialProc;770;1317;Prmod_B;45;1605;1649;ListFischi1;0;;2;203;191140;15;15;1634;192774;226;1;1634;1;341;357;1408;1;1
TMS_Ibrahim;44;1;"<?xml version=""1.0""?>\n<Clock xmlns:dt=""urn:schemas-microsoft-com:datatypes""><Description dt:dt=""string"">E-Prime Primary Realtime Clock</Description><StartTime><Timestamp dt:dt=""int"">0</Timestamp><DateUtc dt:dt=""string"">2022-11-07T14:06:45Z</DateUtc></StartTime><FrequencyChanges><FrequencyChange><Frequency dt:dt=""r8"">3312890</Frequency><Timestamp dt:dt=""r8"">12213188206</Timestamp><Current dt:dt=""r8"">0</Current><DateUtc dt:dt=""string"">2022-11-07T14:06:45Z</DateUtc></FrequencyChange></FrequencyChanges></Clock>\n";TMS_Ibrahim-44-1;75.028;1.0.0.561;1;v;-671055823;2.0.10.242;2.0.10.242;11/07/2022;07/11/2022 14:06;15:06:45;2.0.10.147;0;;-999999;42;29728;0;1;2332;32060;1;1;1;2;1;0;1;BlockProcFischi;BlockList;1;100;0;;-999999;32;33856;0;1;1422;35278;1;1;1;1;ProcFischi1;ListBlockFischi;23;1;2;0;0;3;Pr5_B;225;3;ug;3;2;30;1;23;3;1;TrialProc;1092;669;Pr5_B;302;1572;1270;ListFischi1;0;;2;201;198292;7;13;1602;199894;530;1;1602;1;435;447;1072;1;1
TMS_Ibrahim;44;1;"<?xml version=""1.0""?>\n<Clock xmlns:dt=""urn:schemas-microsoft-com:datatypes""><Description dt:dt=""string"">E-Prime Primary Realtime Clock</Description><StartTime><Timestamp dt:dt=""int"">0</Timestamp><DateUtc dt:dt=""string"">2022-11-07T14:06:45Z</DateUtc></StartTime><FrequencyChanges><FrequencyChange><Frequency dt:dt=""r8"">3312890</Frequency><Timestamp dt:dt=""r8"">12213188206</Timestamp><Current dt:dt=""r8"">0</Current><DateUtc dt:dt=""string"">2022-11-07T14:06:45Z</DateUtc></FrequencyChange></FrequencyChanges></Clock>\n";TMS_Ibrahim-44-1;75.028;1.0.0.561;1;v;-671055823;2.0.10.242;2.0.10.242;11/07/2022;07/11/2022 14:06;15:06:45;2.0.10.147;0;;-999999;42;29728;0;1;2332;32060;1;1;1;2;1;0;1;BlockProcFischi;BlockList;1;100;0;;-999999;32;33856;0;1;1422;35278;1;1;1;1;ProcFischi1;ListBlockFischi;24;1;2;1;1;3;Prmod_B;225;3;ug;3;2;31;1;24;3;1;TrialProc;803;1310;Prmod_B;85;1559;1643;ListFischi1;0;;2;203;205141;9;133;2896;208037;465;1;1585;1;360;516;1120;1;1
TMS_Ibrahim;44;1;"<?xml version=""1.0""?>\n<Clock xmlns:dt=""urn:schemas-microsoft-com:datatypes""><Description dt:dt=""string"">E-Prime Primary Realtime Clock</Description><StartTime><Timestamp dt:dt=""int"">0</Timestamp><DateUtc dt:dt=""string"">2022-11-07T14:06:45Z</DateUtc></StartTime><FrequencyChanges><FrequencyChange><Frequency dt:dt=""r8"">3312890</Frequency><Timestamp dt:dt=""r8"">12213188206</Timestamp><Current dt:dt=""r8"">0</Current><DateUtc dt:dt=""string"">2022-11-07T14:06:45Z</DateUtc></FrequencyChange></FrequencyChanges></Clock>\n";TMS_Ibrahim-44-1;75.028;1.0.0.561;1;v;-671055823;2.0.10.242;2.0.10.242;11/07/2022;07/11/2022 14:06;15:06:45;2.0.10.147;0;;-999999;42;29728;0;1;2332;32060;1;1;1;2;1;0;1;BlockProcFischi;BlockList;1;100;0;;-999999;32;33856;0;1;1422;35278;1;1;1;1;ProcFischi1;ListBlockFischi;25;1;2;0;0;3;Pr8_B;200;3;ug;3;2;21;1;25;3;1;TrialProc;673;720;Pr8_B;31;1777;1746;ListFischi1;0;;2;201;212356;18;13;1809;214165;435;1;1809;1;248;569;1374;1;1
TMS_Ibrahim;44;1;"<?xml version=""1.0""?>\n<Clock xmlns:dt=""urn:schemas-microsoft-com:datatypes""><Description dt:dt=""string"">E-Prime Primary Realtime Clock</Description><StartTime><Timestamp dt:dt=""int"">0</Timestamp><DateUtc dt:dt=""string"">2022-11-07T14:06:45Z</DateUtc></StartTime><FrequencyChanges><FrequencyChange><Frequency dt:dt=""r8"">3312890</Frequency><Timestamp dt:dt=""r8"">12213188206</Timestamp><Current dt:dt=""r8"">0</Current><DateUtc dt:dt=""string"">2022-11-07T14:06:45Z</DateUtc></FrequencyChange></FrequencyChanges></Clock>\n";TMS_Ibrahim-44-1;75.028;1.0.0.561;1;v;-671055823;2.0.10.242;2.0.10.242;11/07/2022;07/11/2022 14:06;15:06:45;2.0.10.147;0;;-999999;42;29728;0;1;2332;32060;1;1;1;2;1;0;1;BlockProcFischi;BlockList;1;100;0;;-999999;32;33856;0;1;1422;35278;1;1;1;1;ProcFischi1;ListBlockFischi;26;1;2;0;0;3;Pr5_B;175;3;ug;3;2;20;1;26;3;1;TrialProc;704;679;Pr5_B;302;1582;1280;ListFischi1;0;;2;203;219579;19;13;1610;221189;426;1;1610;1;518;329;1184;1;1
TMS_Ibrahim;44;1;"<?xml version=""1.0""?>\n<Clock xmlns:dt=""urn:schemas-microsoft-com:datatypes""><Description dt:dt=""string"">E-Prime Primary Realtime Clock</Description><StartTime><Timestamp dt:dt=""int"">0</Timestamp><DateUtc dt:dt=""string"">2022-11-07T14:06:45Z</DateUtc></StartTime><FrequencyChanges><FrequencyChange><Frequency dt:dt=""r8"">3312890</Frequency><Timestamp dt:dt=""r8"">12213188206</Timestamp><Current dt:dt=""r8"">0</Current><DateUtc dt:dt=""string"">2022-11-07T14:06:45Z</DateUtc></FrequencyChange></FrequencyChanges></Clock>\n";TMS_Ibrahim-44-1;75.028;1.0.0.561;1;v;-671055823;2.0.10.242;2.0.10.242;11/07/2022;07/11/2022 14:06;15:06:45;2.0.10.147;0;;-999999;42;29728;0;1;2332;32060;1;1;1;2;1;0;1;BlockProcFischi;BlockList;1;100;0;;-999999;32;33856;0;1;1422;35278;1;1;1;1;ProcFischi1;ListBlockFischi;27;1;1;0;2;3;Po3_B;175;2;op;3;2;44;1;27;2;0;TrialProc;661;1308;Po3_B;286;1861;1574;ListFischi1;0;;3;201;226627;8;13;1890;228517;226;1;1890;1;486;348;1664;1;1
TMS_Ibrahim;44;1;"<?xml version=""1.0""?>\n<Clock xmlns:dt=""urn:schemas-microsoft-com:datatypes""><Description dt:dt=""string"">E-Prime Primary Realtime Clock</Description><StartTime><Timestamp dt:dt=""int"">0</Timestamp><DateUtc dt:dt=""string"">2022-11-07T14:06:45Z</DateUtc></StartTime><FrequencyChanges><FrequencyChange><Frequency dt:dt=""r8"">3312890</Frequency><Timestamp dt:dt=""r8"">12213188206</Timestamp><Current dt:dt=""r8"">0</Current><DateUtc dt:dt=""string"">2022-11-07T14:06:45Z</DateUtc></FrequencyChange></FrequencyChanges></Clock>\n";TMS_Ibrahim-44-1;75.028;1.0.0.561;1;v;-671055823;2.0.10.242;2.0.10.242;11/07/2022;07/11/2022 14:06;15:06:45;2.0.10.147;0;;-999999;42;29728;0;1;2332;32060;1;1;1;2;1;0;1;BlockProcFischi;BlockList;1;100;0;;-999999;32;33856;0;1;1422;35278;1;1;1;1;ProcFischi1;ListBlockFischi;28;1;2;0;1;3;Pr2_B;175;3;ug;3;2;17;1;28;3;1;TrialProc;693;716;Pr2_B;21;1229;1250;ListFischi1;0;;2;203;233738;14;13;1259;234997;316;1;1259;1;365;307;943;1;1
TMS_Ibrahim;44;1;"<?xml version=""1.0""?>\n<Clock xmlns:dt=""urn:schemas-microsoft-com:datatypes""><Description dt:dt=""string"">E-Prime Primary Realtime Clock</Description><StartTime><Timestamp dt:dt=""int"">0</Timestamp><DateUtc dt:dt=""string"">2022-11-07T14:06:45Z</DateUtc></StartTime><FrequencyChanges><FrequencyChange><Frequency dt:dt=""r8"">3312890</Frequency><Timestamp dt:dt=""r8"">12213188206</Timestamp><Current dt:dt=""r8"">0</Current><DateUtc dt:dt=""string"">2022-11-07T14:06:45Z</DateUtc></FrequencyChange></FrequencyChanges></Clock>\n";TMS_Ibrahim-44-1;75.028;1.0.0.561;1;v;-671055823;2.0.10.242;2.0.10.242;11/07/2022;07/11/2022 14:06;15:06:45;2.0.10.147;0;;-999999;42;29728;0;1;2332;32060;1;1;1;2;1;0;1;BlockProcFischi;BlockList;1;100;0;;-999999;32;33856;0;1;1422;35278;1;1;1;1;ProcFischi1;ListBlockFischi;29;1;1;0;0;3;Po5_B;200;2;op;3;2;36;1;29;2;0;TrialProc;648;979;Po5_B;201;1271;1473;ListFischi1;0;;2;201;241005;11;13;1303;242308;311;1;1303;1;402;200;992;1;1
TMS_Ibrahim;44;1;"<?xml version=""1.0""?>\n<Clock xmlns:dt=""urn:schemas-microsoft-com:datatypes""><Description dt:dt=""string"">E-Prime Primary Realtime Clock</Description><StartTime><Timestamp dt:dt=""int"">0</Timestamp><DateUtc dt:dt=""string"">2022-11-07T14:06:45Z</DateUtc></StartTime><FrequencyChanges><FrequencyChange><Frequency dt:dt=""r8"">3312890</Frequency><Timestamp dt:dt=""r8"">12213188206</Timestamp><Current dt:dt=""r8"">0</Current><DateUtc dt:dt=""string"">2022-11-07T14:06:45Z</DateUtc></FrequencyChange></FrequencyChanges></Clock>\n";TMS_Ibrahim-44-1;75.028;1.0.0.561;1;v;-671055823;2.0.10.242;2.0.10.242;11/07/2022;07/11/2022 14:06;15:06:45;2.0.10.147;0;;-999999;42;29728;0;1;2332;32060;1;1;1;2;1;0;1;BlockProcFischi;BlockList;1;100;0;;-999999;32;33856;0;1;1422;35278;1;1;1;1;ProcFischi1;ListBlockFischi;30;1;1;0;2;5;Po4_B;125;4;ug;5;2;61;1;30;4;1;TrialProc;676;1343;Po4_B;189;1528;1717;ListFischi1;0;;2;203;248463;16;15;1557;250020;101;1;1557;1;220;211;1456;1;1
TMS_Ibrahim;44;1;"<?xml version=""1.0""?>\n<Clock xmlns:dt=""urn:schemas-microsoft-com:datatypes""><Description dt:dt=""string"">E-Prime Primary Realtime Clock</Description><StartTime><Timestamp dt:dt=""int"">0</Timestamp><DateUtc dt:dt=""string"">2022-11-07T14:06:45Z</DateUtc></StartTime><FrequencyChanges><FrequencyChange><Frequency dt:dt=""r8"">3312890</Frequency><Timestamp dt:dt=""r8"">12213188206</Timestamp><Current dt:dt=""r8"">0</Current><DateUtc dt:dt=""string"">2022-11-07T14:06:45Z</DateUtc></FrequencyChange></FrequencyChanges></Clock>\n";TMS_Ibrahim-44-1;75.028;1.0.0.561;1;v;-671055823;2.0.10.242;2.0.10.242;11/07/2022;07/11/2022 14:06;15:06:45;2.0.10.147;0;;-999999;42;29728;0;1;2332;32060;1;1;1;2;1;0;1;BlockProcFischi;BlockList;1;100;0;;-999999;32;33856;0;1;1422;35278;1;1;1;1;ProcFischi1;ListBlockFischi;31;1;2;0;0;3;Pr8_B;150;3;ug;3;2;26;1;31;3;1;TrialProc;1280;717;Pr8_B;34;1708;1742;ListFischi1;0;;2;201;256075;15;13;1737;257812;617;1;1737;1;468;502;1120;1;1
TMS_Ibrahim;44;1;"<?xml version=""1.0""?>\n<Clock xmlns:dt=""urn:schemas-microsoft-com:datatypes""><Description dt:dt=""string"">E-Prime Primary Realtime Clock</Description><StartTime><Timestamp dt:dt=""int"">0</Timestamp><DateUtc dt:dt=""string"">2022-11-07T14:06:45Z</DateUtc></StartTime><FrequencyChanges><FrequencyChange><Frequency dt:dt=""r8"">3312890</Frequency><Timestamp dt:dt=""r8"">12213188206</Timestamp><Current dt:dt=""r8"">0</Current><DateUtc dt:dt=""string"">2022-11-07T14:06:45Z</DateUtc></FrequencyChange></FrequencyChanges></Clock>\n";TMS_Ibrahim-44-1;75.028;1.0.0.561;1;v;-671055823;2.0.10.242;2.0.10.242;11/07/2022;07/11/2022 14:06;15:06:45;2.0.10.147;0;;-999999;42;29728;0;1;2332;32060;1;1;1;2;1;0;1;BlockProcFischi;BlockList;1;100;0;;-999999;32;33856;0;1;1422;35278;1;1;1;1;ProcFischi1;ListBlockFischi;32;1;1;0;0;5;Po8_B;150;4;ug;5;2;53;1;32;4;1;TrialProc;707;1242;Po8_B;25;1600;1575;ListFischi1;0;;2;203;264772;8;155;3071;267843;447;1;1631;1;390;312;1184;1;1
TMS_Ibrahim;44;1;"<?xml version=""1.0""?>\n<Clock xmlns:dt=""urn:schemas-microsoft-com:datatypes""><Description dt:dt=""string"">E-Prime Primary Realtime Clock</Description><StartTime><Timestamp dt:dt=""int"">0</Timestamp><DateUtc dt:dt=""string"">2022-11-07T14:06:45Z</DateUtc></StartTime><FrequencyChanges><FrequencyChange><Frequency dt:dt=""r8"">3312890</Frequency><Timestamp dt:dt=""r8"">12213188206</Timestamp><Current dt:dt=""r8"">0</Current><DateUtc dt:dt=""string"">2022-11-07T14:06:45Z</DateUtc></FrequencyChange></FrequencyChanges></Clock>\n";TMS_Ibrahim-44-1;75.028;1.0.0.561;1;v;-671055823;2.0.10.242;2.0.10.242;11/07/2022;07/11/2022 14:06;15:06:45;2.0.10.147;0;;-999999;42;29728;0;1;2332;32060;1;1;1;2;1;0;1;BlockProcFischi;BlockList;1;100;0;;-999999;32;33856;0;1;1422;35278;1;1;1;1;ProcFischi1;ListBlockFischi;33;0;2;1;0;3;Prmod_B;;3;ug;5;2;32;1;33;3;1;TrialProc;1108;1315;Prmod_B;305;1344;1649;ListFischi1;0;;2;201;272190;13;153;1893;274083;341;1;1365;1;375;358;1024;1;0
TMS_Ibrahim;44;1;"<?xml version=""1.0""?>\n<Clock xmlns:dt=""urn:schemas-microsoft-com:datatypes""><Description dt:dt=""string"">E-Prime Primary Realtime Clock</Description><StartTime><Timestamp dt:dt=""int"">0</Timestamp><DateUtc dt:dt=""string"">2022-11-07T14:06:45Z</DateUtc></StartTime><FrequencyChanges><FrequencyChange><Frequency dt:dt=""r8"">3312890</Frequency><Timestamp dt:dt=""r8"">12213188206</Timestamp><Current dt:dt=""r8"">0</Current><DateUtc dt:dt=""string"">2022-11-07T14:06:45Z</DateUtc></FrequencyChange></FrequencyChanges></Clock>\n";TMS_Ibrahim-44-1;75.028;1.0.0.561;1;v;-671055823;2.0.10.242;2.0.10.242;11/07/2022;07/11/2022 14:06;15:06:45;2.0.10.147;0;;-999999;42;29728;0;1;2332;32060;1;1;1;2;1;0;1;BlockProcFischi;BlockList;1;100;0;;-999999;32;33856;0;1;1422;35278;1;1;1;1;ProcFischi1;ListBlockFischi;34;1;2;0;0;5;Pr5_B;125;1;op;5;2;14;1;34;1;0;TrialProc;570;669;Pr5_B;187;1457;1269;ListFischi1;0;;2;203;279059;8;15;1488;280547;272;1;1488;1;372;264;1216;1;1
TMS_Ibrahim;44;1;"<?xml version=""1.0""?>\n<Clock xmlns:dt=""urn:schemas-microsoft-com:datatypes""><Description dt:dt=""string"">E-Prime Primary Realtime Clock</Description><StartTime><Timestamp dt:dt=""int"">0</Timestamp><DateUtc dt:dt=""string"">2022-11-07T14:06:45Z</DateUtc></StartTime><FrequencyChanges><FrequencyChange><Frequency dt:dt=""r8"">3312890</Frequency><Timestamp dt:dt=""r8"">12213188206</Timestamp><Current dt:dt=""r8"">0</Current><DateUtc dt:dt=""string"">2022-11-07T14:06:45Z</DateUtc></FrequencyChange></FrequencyChanges></Clock>\n";TMS_Ibrahim-44-1;75.028;1.0.0.561;1;v;-671055823;2.0.10.242;2.0.10.242;11/07/2022;07/11/2022 14:06;15:06:45;2.0.10.147;0;;-999999;42;29728;0;1;2332;32060;1;1;1;2;1;0;1;BlockProcFischi;BlockList;1;100;0;;-999999;32;33856;0;1;1422;35278;1;1;1;1;ProcFischi1;ListBlockFischi;35;1;1;0;0;5;Po5_B;125;4;ug;5;2;62;1;35;4;1;TrialProc;670;977;Po5_B;305;1166;1472;ListFischi1;0;;2;201;286214;11;155;2764;288978;285;1;1196;1;553;279;911;1;1
TMS_Ibrahim;44;1;"<?xml version=""1.0""?>\n<Clock xmlns:dt=""urn:schemas-microsoft-com:datatypes""><Description dt:dt=""string"">E-Prime Primary Realtime Clock</Description><StartTime><Timestamp dt:dt=""int"">0</Timestamp><DateUtc dt:dt=""string"">2022-11-07T14:06:45Z</DateUtc></StartTime><FrequencyChanges><FrequencyChange><Frequency dt:dt=""r8"">3312890</Frequency><Timestamp dt:dt=""r8"">12213188206</Timestamp><Current dt:dt=""r8"">0</Current><DateUtc dt:dt=""string"">2022-11-07T14:06:45Z</DateUtc></FrequencyChange></FrequencyChanges></Clock>\n";TMS_Ibrahim-44-1;75.028;1.0.0.561;1;v;-671055823;2.0.10.242;2.0.10.242;11/07/2022;07/11/2022 14:06;15:06:45;2.0.10.147;0;;-999999;42;29728;0;1;2332;32060;1;1;1;2;1;0;1;BlockProcFischi;BlockList;1;100;0;;-999999;32;33856;0;1;1422;35278;1;1;1;1;ProcFischi1;ListBlockFischi;36;1;1;0;0;3;Po3_B;200;2;op;3;2;34;1;36;2;0;TrialProc;689;1315;Po3_B;124;1456;1581;ListFischi1;0;;2;203;293968;14;13;1490;295458;403;1;1490;1;374;512;1087;1;1
TMS_Ibrahim;44;1;"<?xml version=""1.0""?>\n<Clock xmlns:dt=""urn:schemas-microsoft-com:datatypes""><Description dt:dt=""string"">E-Prime Primary Realtime Clock</Description><StartTime><Timestamp dt:dt=""int"">0</Timestamp><DateUtc dt:dt=""string"">2022-11-07T14:06:45Z</DateUtc></StartTime><FrequencyChanges><FrequencyChange><Frequency dt:dt=""r8"">3312890</Frequency><Timestamp dt:dt=""r8"">12213188206</Timestamp><Current dt:dt=""r8"">0</Current><DateUtc dt:dt=""string"">2022-11-07T14:06:45Z</DateUtc></FrequencyChange></FrequencyChanges></Clock>\n";TMS_Ibrahim-44-1;75.028;1.0.0.561;1;v;-671055823;2.0.10.242;2.0.10.242;11/07/2022;07/11/2022 14:06;15:06:45;2.0.10.147;0;;-999999;42;29728;0;1;2332;32060;1;1;1;2;1;0;1;BlockProcFischi;BlockList;1;100;0;;-999999;32;33856;0;1;1422;35278;1;1;1;1;ProcFischi1;ListBlockFischi;37;1;1;0;0;3;Po5_B;175;2;op;3;2;41;1;37;2;0;TrialProc;1018;981;Po5_B;126;1348;1474;ListFischi1;0;;2;201;301100;12;13;1382;302482;326;1;1382;1;526;424;1056;1;1
TMS_Ibrahim;44;1;"<?xml version=""1.0""?>\n<Clock xmlns:dt=""urn:schemas-microsoft-com:datatypes""><Description dt:dt=""string"">E-Prime Primary Realtime Clock</Description><StartTime><Timestamp dt:dt=""int"">0</Timestamp><DateUtc dt:dt=""string"">2022-11-07T14:06:45Z</DateUtc></StartTime><FrequencyChanges><FrequencyChange><Frequency dt:dt=""r8"">3312890</Frequency><Timestamp dt:dt=""r8"">12213188206</Timestamp><Current dt:dt=""r8"">0</Current><DateUtc dt:dt=""string"">2022-11-07T14:06:45Z</DateUtc></FrequencyChange></FrequencyChanges></Clock>\n";TMS_Ibrahim-44-1;75.028;1.0.0.561;1;v;-671055823;2.0.10.242;2.0.10.242;11/07/2022;07/11/2022 14:06;15:06:45;2.0.10.147;0;;-999999;42;29728;0;1;2332;32060;1;1;1;2;1;0;1;BlockProcFischi;BlockList;1;100;0;;-999999;32;33856;0;1;1422;35278;1;1;1;1;ProcFischi1;ListBlockFischi;38;1;2;0;0;3;Pr2_B;125;3;ug;3;2;22;1;38;3;1;TrialProc;837;714;Pr2_B;40;1207;1247;ListFischi1;0;;2;203;308417;12;13;1233;309650;385;1;1233;1;266;506;848;1;1
TMS_Ibrahim;44;1;"<?xml version=""1.0""?>\n<Clock xmlns:dt=""urn:schemas-microsoft-com:datatypes""><Description dt:dt=""string"">E-Prime Primary Realtime Clock</Description><StartTime><Timestamp dt:dt=""int"">0</Timestamp><DateUtc dt:dt=""string"">2022-11-07T14:06:45Z</DateUtc></StartTime><FrequencyChanges><FrequencyChange><Frequency dt:dt=""r8"">3312890</Frequency><Timestamp dt:dt=""r8"">12213188206</Timestamp><Current dt:dt=""r8"">0</Current><DateUtc dt:dt=""string"">2022-11-07T14:06:45Z</DateUtc></FrequencyChange></FrequencyChanges></Clock>\n";TMS_Ibrahim-44-1;75.028;1.0.0.561;1;v;-671055823;2.0.10.242;2.0.10.242;11/07/2022;07/11/2022 14:06;15:06:45;2.0.10.147;0;;-999999;42;29728;0;1;2332;32060;1;1;1;2;1;0;1;BlockProcFischi;BlockList;1;100;0;;-999999;32;33856;0;1;1422;35278;1;1;1;1;ProcFischi1;ListBlockFischi;39;1;2;0;1;5;Pr8_B;125;1;op;5;2;10;1;39;1;0;TrialProc;763;716;Pr8_B;68;1675;1743;ListFischi1;0;;2;201;315733;13;151;4684;320417;399;1;1708;1;343;573;1309;1;1
TMS_Ibrahim;44;1;"<?xml version=""1.0""?>\n<Clock xmlns:dt=""urn:schemas-microsoft-com:datatypes""><Description dt:dt=""string"">E-Prime Primary Realtime Clock</Description><StartTime><Timestamp dt:dt=""int"">0</Timestamp><DateUtc dt:dt=""string"">2022-11-07T14:06:45Z</DateUtc></StartTime><FrequencyChanges><FrequencyChange><Frequency dt:dt=""r8"">3312890</Frequency><Timestamp dt:dt=""r8"">12213188206</Timestamp><Current dt:dt=""r8"">0</Current><DateUtc dt:dt=""string"">2022-11-07T14:06:45Z</DateUtc></FrequencyChange></FrequencyChanges></Clock>\n";TMS_Ibrahim-44-1;75.028;1.0.0.561;1;v;-671055823;2.0.10.242;2.0.10.242;11/07/2022;07/11/2022 14:06;15:06:45;2.0.10.147;0;;-999999;42;29728;0;1;2332;32060;1;1;1;2;1;0;1;BlockProcFischi;BlockList;1;100;0;;-999999;32;33856;0;1;1422;35278;1;1;1;1;ProcFischi1;ListBlockFischi;40;1;2;0;0;5;Pr3_B;100;1;op;5;2;12;1;40;1;0;TrialProc;634;717;Pr3_B;163;1554;1717;ListFischi1;0;;2;203;322967;16;155;1994;324961;330;1;1578;1;261;543;1248;1;1
TMS_Ibrahim;44;1;"<?xml version=""1.0""?>\n<Clock xmlns:dt=""urn:schemas-microsoft-com:datatypes""><Description dt:dt=""string"">E-Prime Primary Realtime Clock</Description><StartTime><Timestamp dt:dt=""int"">0</Timestamp><DateUtc dt:dt=""string"">2022-11-07T14:06:45Z</DateUtc></StartTime><FrequencyChanges><FrequencyChange><Frequency dt:dt=""r8"">3312890</Frequency><Timestamp dt:dt=""r8"">12213188206</Timestamp><Current dt:dt=""r8"">0</Current><DateUtc dt:dt=""string"">2022-11-07T14:06:45Z</DateUtc></FrequencyChange></FrequencyChanges></Clock>\n";TMS_Ibrahim-44-1;75.028;1.0.0.561;1;v;-671055823;2.0.10.242;2.0.10.242;11/07/2022;07/11/2022 14:06;15:06:45;2.0.10.147;0;;-999999;42;29728;0;1;2332;32060;1;1;1;2;1;0;1;BlockProcFischi;BlockList;1;100;0;;-999999;32;33856;0;1;1422;35278;1;1;1;1;ProcFischi1;ListBlockFischi;41;1;2;0;1;5;Pr8_B;100;1;op;5;2;5;1;41;1;0;TrialProc;771;715;Pr8_B;60;1682;1741;ListFischi1;0;;2;201;329755;12;15;1702;331457;358;1;1702;1;225;578;1344;1;1
TMS_Ibrahim;44;1;"<?xml version=""1.0""?>\n<Clock xmlns:dt=""urn:schemas-microsoft-com:datatypes""><Description dt:dt=""string"">E-Prime Primary Realtime Clock</Description><StartTime><Timestamp dt:dt=""int"">0</Timestamp><DateUtc dt:dt=""string"">2022-11-07T14:06:45Z</DateUtc></StartTime><FrequencyChanges><FrequencyChange><Frequency dt:dt=""r8"">3312890</Frequency><Timestamp dt:dt=""r8"">12213188206</Timestamp><Current dt:dt=""r8"">0</Current><DateUtc dt:dt=""string"">2022-11-07T14:06:45Z</DateUtc></FrequencyChange></FrequencyChanges></Clock>\n";TMS_Ibrahim-44-1;75.028;1.0.0.561;1;v;-671055823;2.0.10.242;2.0.10.242;11/07/2022;07/11/2022 14:06;15:06:45;2.0.10.147;0;;-999999;42;29728;0;1;2332;32060;1;1;1;2;1;0;1;BlockProcFischi;BlockList;1;100;0;;-999999;32;33856;0;1;1422;35278;1;1;1;1;ProcFischi1;ListBlockFischi;42;1;1;0;0;3;Po2_B;150;2;op;3;2;33;1;42;2;0;TrialProc;706;1575;Po2_B;162;1638;1801;ListFischi1;0;;2;203;337305;6;133;1863;339168;456;1;1672;1;365;404;1216;1;1
TMS_Ibrahim;44;1;"<?xml version=""1.0""?>\n<Clock xmlns:dt=""urn:schemas-microsoft-com:datatypes""><Description dt:dt=""string"">E-Prime Primary Realtime Clock</Description><StartTime><Timestamp dt:dt=""int"">0</Timestamp><DateUtc dt:dt=""string"">2022-11-07T14:06:45Z</DateUtc></StartTime><FrequencyChanges><FrequencyChange><Frequency dt:dt=""r8"">3312890</Frequency><Timestamp dt:dt=""r8"">12213188206</Timestamp><Current dt:dt=""r8"">0</Current><DateUtc dt:dt=""string"">2022-11-07T14:06:45Z</DateUtc></FrequencyChange></FrequencyChanges></Clock>\n";TMS_Ibrahim-44-1;75.028;1.0.0.561;1;v;-671055823;2.0.10.242;2.0.10.242;11/07/2022;07/11/2022 14:06;15:06:45;2.0.10.147;0;;-999999;42;29728;0;1;2332;32060;1;1;1;2;1;0;1;BlockProcFischi;BlockList;1;100;0;;-999999;32;33856;0;1;1422;35278;1;1;1;1;ProcFischi1;ListBlockFischi;43;1;2;0;0;3;Pr4_B;100;3;ug;3;2;19;1;43;3;1;TrialProc;1026;671;Pr4_B;106;1350;1244;ListFischi1;0;;2;201;344605;10;13;1379;345984;467;1;1379;1;449;436;912;1;1
TMS_Ibrahim;44;1;"<?xml version=""1.0""?>\n<Clock xmlns:dt=""urn:schemas-microsoft-com:datatypes""><Description dt:dt=""string"">E-Prime Primary Realtime Clock</Description><StartTime><Timestamp dt:dt=""int"">0</Timestamp><DateUtc dt:dt=""string"">2022-11-07T14:06:45Z</DateUtc></StartTime><FrequencyChanges><FrequencyChange><Frequency dt:dt=""r8"">3312890</Frequency><Timestamp dt:dt=""r8"">12213188206</Timestamp><Current dt:dt=""r8"">0</Current><DateUtc dt:dt=""string"">2022-11-07T14:06:45Z</DateUtc></FrequencyChange></FrequencyChanges></Clock>\n";TMS_Ibrahim-44-1;75.028;1.0.0.561;1;v;-671055823;2.0.10.242;2.0.10.242;11/07/2022;07/11/2022 14:06;15:06:45;2.0.10.147;0;;-999999;42;29728;0;1;2332;32060;1;1;1;2;1;0;1;BlockProcFischi;BlockList;1;100;0;;-999999;32;33856;0;1;1422;35278;1;1;1;1;ProcFischi1;ListBlockFischi;44;0;1;1;0;3;Pomod_B;;2;op;5;2;47;1;44;2;0;TrialProc;1517;1308;Pomod_B;262;1407;1669;ListFischi1;0;;2;203;351871;8;153;2033;353904;369;1;1441;1;288;220;1072;1;0
TMS_Ibrahim;44;1;"<?xml version=""1.0""?>\n<Clock xmlns:dt=""urn:schemas-microsoft-com:datatypes""><Description dt:dt=""string"">E-Prime Primary Realtime Clock</Description><StartTime><Timestamp dt:dt=""int"">0</Timestamp><DateUtc dt:dt=""string"">2022-11-07T14:06:45Z</DateUtc></StartTime><FrequencyChanges><FrequencyChange><Frequency dt:dt=""r8"">3312890</Frequency><Timestamp dt:dt=""r8"">12213188206</Timestamp><Current dt:dt=""r8"">0</Current><DateUtc dt:dt=""string"">2022-11-07T14:06:45Z</DateUtc></FrequencyChange></FrequencyChanges></Clock>\n";TMS_Ibrahim-44-1;75.028;1.0.0.561;1;v;-671055823;2.0.10.242;2.0.10.242;11/07/2022;07/11/2022 14:06;15:06:45;2.0.10.147;0;;-999999;42;29728;0;1;2332;32060;1;1;1;2;1;0;1;BlockProcFischi;BlockList;1;100;0;;-999999;32;33856;0;1;1422;35278;1;1;1;1;ProcFischi1;ListBlockFischi;45;1;1;0;0;3;Po4_B;150;2;op;3;2;40;1;45;2;0;TrialProc;699;1339;Po4_B;256;1455;1712;ListFischi1;0;;2;201;358613;10;13;1483;360096;396;1;1483;1;326;563;1087;1;1
TMS_Ibrahim;44;1;"<?xml version=""1.0""?>\n<Clock xmlns:dt=""urn:schemas-microsoft-com:datatypes""><Description dt:dt=""string"">E-Prime Primary Realtime Clock</Description><StartTime><Timestamp dt:dt=""int"">0</Timestamp><DateUtc dt:dt=""string"">2022-11-07T14:06:45Z</DateUtc></StartTime><FrequencyChanges><FrequencyChange><Frequency dt:dt=""r8"">3312890</Frequency><Timestamp dt:dt=""r8"">12213188206</Timestamp><Current dt:dt=""r8"">0</Current><DateUtc dt:dt=""string"">2022-11-07T14:06:45Z</DateUtc></FrequencyChange></FrequencyChanges></Clock>\n";TMS_Ibrahim-44-1;75.028;1.0.0.561;1;v;-671055823;2.0.10.242;2.0.10.242;11/07/2022;07/11/2022 14:06;15:06:45;2.0.10.147;0;;-999999;42;29728;0;1;2332;32060;1;1;1;2;1;0;1;BlockProcFischi;BlockList;1;100;0;;-999999;32;33856;0;1;1422;35278;1;1;1;1;ProcFischi1;ListBlockFischi;46;1;2;1;0;5;Prmod_B;75;1;op;5;2;15;1;46;1;0;TrialProc;836;1316;Prmod_B;201;1850;1648;ListFischi1;0;;2;203;366179;14;155;2268;368447;204;1;1884;1;253;578;1680;1;1
TMS_Ibrahim;44;1;"<?xml version=""1.0""?>\n<Clock xmlns:dt=""urn:schemas-microsoft-com:datatypes""><Description dt:dt=""string"">E-Prime Primary Realtime Clock</Description><StartTime><Timestamp dt:dt=""int"">0</Timestamp><DateUtc dt:dt=""string"">2022-11-07T14:06:45Z</DateUtc></StartTime><FrequencyChanges><FrequencyChange><Frequency dt:dt=""r8"">3312890</Frequency><Timestamp dt:dt=""r8"">12213188206</Timestamp><Current dt:dt=""r8"">0</Current><DateUtc dt:dt=""string"">2022-11-07T14:06:45Z</DateUtc></FrequencyChange></FrequencyChanges></Clock>\n";TMS_Ibrahim-44-1;75.028;1.0.0.561;1;v;-671055823;2.0.10.242;2.0.10.242;11/07/2022;07/11/2022 14:06;15:06:45;2.0.10.147;0;;-999999;42;29728;0;1;2332;32060;1;1;1;2;1;0;1;BlockProcFischi;BlockList;1;100;0;;-999999;32;33856;0;1;1422;35278;1;1;1;1;ProcFischi1;ListBlockFischi;47;1;1;0;1;3;Po4_B;150;2;op;3;2;35;1;47;2;0;TrialProc;651;1334;Po4_B;205;1502;1707;ListFischi1;0;;2;201;373157;7;13;1530;374687;330;1;1530;1;463;491;1200;1;1
TMS_Ibrahim;44;1;"<?xml version=""1.0""?>\n<Clock xmlns:dt=""urn:schemas-microsoft-com:datatypes""><Description dt:dt=""string"">E-Prime Primary Realtime Clock</Description><StartTime><Timestamp dt:dt=""int"">0</Timestamp><DateUtc dt:dt=""string"">2022-11-07T14:06:45Z</DateUtc></StartTime><FrequencyChanges><FrequencyChange><Frequency dt:dt=""r8"">3312890</Frequency><Timestamp dt:dt=""r8"">12213188206</Timestamp><Current dt:dt=""r8"">0</Current><DateUtc dt:dt=""string"">2022-11-07T14:06:45Z</DateUtc></FrequencyChange></FrequencyChanges></Clock>\n";TMS_Ibrahim-44-1;75.028;1.0.0.561;1;v;-671055823;2.0.10.242;2.0.10.242;11/07/2022;07/11/2022 14:06;15:06:45;2.0.10.147;0;;-999999;42;29728;0;1;2332;32060;1;1;1;2;1;0;1;BlockProcFischi;BlockList;1;100;0;;-999999;32;33856;0;1;1422;35278;1;1;1;1;ProcFischi1;ListBlockFischi;48;1;1;0;2;3;Po2_B;150;2;op;3;2;43;1;48;2;0;TrialProc;748;1577;Po2_B;173;1630;1804;ListFischi1;0;;2;203;380752;9;133;2511;383263;623;1;1663;1;588;495;1040;1;1
TMS_Ibrahim;44;1;"<?xml version=""1.0""?>\n<Clock xmlns:dt=""urn:schemas-microsoft-com:datatypes""><Description dt:dt=""string"">E-Prime Primary Realtime Clock</Description><StartTime><Timestamp dt:dt=""int"">0</Timestamp><DateUtc dt:dt=""string"">2022-11-07T14:06:45Z</DateUtc></StartTime><FrequencyChanges><FrequencyChange><Frequency dt:dt=""r8"">3312890</Frequency><Timestamp dt:dt=""r8"">12213188206</Timestamp><Current dt:dt=""r8"">0</Current><DateUtc dt:dt=""string"">2022-11-07T14:06:45Z</DateUtc></FrequencyChange></FrequencyChanges></Clock>\n";TMS_Ibrahim-44-1;75.028;1.0.0.561;1;v;-671055823;2.0.10.242;2.0.10.242;11/07/2022;07/11/2022 14:06;15:06:45;2.0.10.147;0;;-999999;42;29728;0;1;2332;32060;1;1;1;2;1;0;1;BlockProcFischi;BlockList;1;100;0;;-999999;32;33856;0;1;1422;35278;1;1;1;1;ProcFischi1;ListBlockFischi;49;1;2;0;0;3;Pr4_B;100;3;ug;3;2;24;1;49;3;1;TrialProc;808;670;Pr4_B;87;1330;1243;ListFischi1;0;;2;201;387522;9;13;1357;388879;429;1;1357;1;468;394;928;1;1
TMS_Ibrahim;44;1;"<?xml version=""1.0""?>\n<Clock xmlns:dt=""urn:schemas-microsoft-com:datatypes""><Description dt:dt=""string"">E-Prime Primary Realtime Clock</Description><StartTime><Timestamp dt:dt=""int"">0</Timestamp><DateUtc dt:dt=""string"">2022-11-07T14:06:45Z</DateUtc></StartTime><FrequencyChanges><FrequencyChange><Frequency dt:dt=""r8"">3312890</Frequency><Timestamp dt:dt=""r8"">12213188206</Timestamp><Current dt:dt=""r8"">0</Current><DateUtc dt:dt=""string"">2022-11-07T14:06:45Z</DateUtc></FrequencyChange></FrequencyChanges></Clock>\n";TMS_Ibrahim-44-1;75.028;1.0.0.561;1;v;-671055823;2.0.10.242;2.0.10.242;11/07/2022;07/11/2022 14:06;15:06:45;2.0.10.147;0;;-999999;42;29728;0;1;2332;32060;1;1;1;2;1;0;1;BlockProcFischi;BlockList;1;100;0;;-999999;32;33856;0;1;1422;35278;1;1;1;1;ProcFischi1;ListBlockFischi;50;1;2;0;1;5;Pr3_B;75;1;op;5;2;2;1;50;1;0;TrialProc;723;711;Pr3_B;103;1812;1709;ListFischi1;0;;2;203;394653;9;155;2529;397182;453;1;1841;1;321;234;1388;1;1
TMS_Ibrahim;44;1;"<?xml version=""1.0""?>\n<Clock xmlns:dt=""urn:schemas-microsoft-com:datatypes""><Description dt:dt=""string"">E-Prime Primary Realtime Clock</Description><StartTime><Timestamp dt:dt=""int"">0</Timestamp><DateUtc dt:dt=""string"">2022-11-07T14:06:45Z</DateUtc></StartTime><FrequencyChanges><FrequencyChange><Frequency dt:dt=""r8"">3312890</Frequency><Timestamp dt:dt=""r8"">12213188206</Timestamp><Current dt:dt=""r8"">0</Current><DateUtc dt:dt=""string"">2022-11-07T14:06:45Z</DateUtc></FrequencyChange></FrequencyChanges></Clock>\n";TMS_Ibrahim-44-1;75.028;1.0.0.561;1;v;-671055823;2.0.10.242;2.0.10.242;11/07/2022;07/11/2022 14:06;15:06:45;2.0.10.147;0;;-999999;42;29728;0;1;2332;32060;1;1;1;2;1;0;1;BlockProcFischi;BlockList;1;100;0;;-999999;32;33856;0;1;1422;35278;1;1;1;1;ProcFischi1;ListBlockFischi;51;1;2;0;0;3;Pr3_B;100;3;ug;3;2;18;1;51;3;1;TrialProc;579;709;Pr3_B;75;1635;1710;ListFischi1;0;;2;203;403211;7;13;1667;404878;323;1;1667;1;553;561;1344;1;1
TMS_Ibrahim;44;1;"<?xml version=""1.0""?>\n<Clock xmlns:dt=""urn:schemas-microsoft-com:datatypes""><Description dt:dt=""string"">E-Prime Primary Realtime Clock</Description><StartTime><Timestamp dt:dt=""int"">0</Timestamp><DateUtc dt:dt=""string"">2022-11-07T14:06:45Z</DateUtc></StartTime><FrequencyChanges><FrequencyChange><Frequency dt:dt=""r8"">3312890</Frequency><Timestamp dt:dt=""r8"">12213188206</Timestamp><Current dt:dt=""r8"">0</Current><DateUtc dt:dt=""string"">2022-11-07T14:06:45Z</DateUtc></FrequencyChange></FrequencyChanges></Clock>\n";TMS_Ibrahim-44-1;75.028;1.0.0.561;1;v;-671055823;2.0.10.242;2.0.10.242;11/07/2022;07/11/2022 14:06;15:06:45;2.0.10.147;0;;-999999;42;29728;0;1;2332;32060;1;1;1;2;1;0;1;BlockProcFischi;BlockList;1;100;0;;-999999;32;33856;0;1;1422;35278;1;1;1;1;ProcFischi1;ListBlockFischi;52;1;1;0;2;3;Po8_B;150;2;op;3;2;37;1;52;2;0;TrialProc;454;1254;Po8_B;103;1484;1586;ListFischi1;0;;2;201;410371;18;133;3067;413438;411;1;1515;1;2655;347;1104;1;1
TMS_Ibrahim;44;1;"<?xml version=""1.0""?>\n<Clock xmlns:dt=""urn:schemas-microsoft-com:datatypes""><Description dt:dt=""string"">E-Prime Primary Realtime Clock</Description><StartTime><Timestamp dt:dt=""int"">0</Timestamp><DateUtc dt:dt=""string"">2022-11-07T14:06:45Z</DateUtc></StartTime><FrequencyChanges><FrequencyChange><Frequency dt:dt=""r8"">3312890</Frequency><Timestamp dt:dt=""r8"">12213188206</Timestamp><Current dt:dt=""r8"">0</Current><DateUtc dt:dt=""string"">2022-11-07T14:06:45Z</DateUtc></FrequencyChange></FrequencyChanges></Clock>\n";TMS_Ibrahim-44-1;75.028;1.0.0.561;1;v;-671055823;2.0.10.242;2.0.10.242;11/07/2022;07/11/2022 14:06;15:06:45;2.0.10.147;0;;-999999;42;29728;0;1;2332;32060;1;1;1;2;1;0;1;BlockProcFischi;BlockList;1;100;0;;-999999;32;33856;0;1;1422;35278;1;1;1;1;ProcFischi1;ListBlockFischi;53;1;1;0;1;5;Po3_B;125;4;ug;5;2;50;1;53;4;1;TrialProc;478;1317;Po3_B;88;1672;1585;ListFischi1;0;;2;203;416784;16;1551;4621;421405;446;1;1693;1;1154;340;1247;1;1
TMS_Ibrahim;44;1;"<?xml version=""1.0""?>\n<Clock xmlns:dt=""urn:schemas-microsoft-com:datatypes""><Description dt:dt=""string"">E-Prime Primary Realtime Clock</Description><StartTime><Timestamp dt:dt=""int"">0</Timestamp><DateUtc dt:dt=""string"">2022-11-07T14:06:45Z</DateUtc></StartTime><FrequencyChanges><FrequencyChange><Frequency dt:dt=""r8"">3312890</Frequency><Timestamp dt:dt=""r8"">12213188206</Timestamp><Current dt:dt=""r8"">0</Current><DateUtc dt:dt=""string"">2022-11-07T14:06:45Z</DateUtc></FrequencyChange></FrequencyChanges></Clock>\n";TMS_Ibrahim-44-1;75.028;1.0.0.561;1;v;-671055823;2.0.10.242;2.0.10.242;11/07/2022;07/11/2022 14:06;15:06:45;2.0.10.147;0;;-999999;42;29728;0;1;2332;32060;1;1;1;2;1;0;1;BlockProcFischi;BlockList;1;100;0;;-999999;32;33856;0;1;1422;35278;1;1;1;1;ProcFischi1;ListBlockFischi;54;1;2;0;2;5;Pr2_B;75;1;op;5;2;6;1;54;1;0;TrialProc;889;718;Pr2_B;258;1509;1251;ListFischi1;0;;2;201;424367;16;15;1534;425901;350;1;1534;1;498;232;1184;1;1
TMS_Ibrahim;44;1;"<?xml version=""1.0""?>\n<Clock xmlns:dt=""urn:schemas-microsoft-com:datatypes""><Description dt:dt=""string"">E-Prime Primary Realtime Clock</Description><StartTime><Timestamp dt:dt=""int"">0</Timestamp><DateUtc dt:dt=""string"">2022-11-07T14:06:45Z</DateUtc></StartTime><FrequencyChanges><FrequencyChange><Frequency dt:dt=""r8"">3312890</Frequency><Timestamp dt:dt=""r8"">12213188206</Timestamp><Current dt:dt=""r8"">0</Current><DateUtc dt:dt=""string"">2022-11-07T14:06:45Z</DateUtc></FrequencyChange></FrequencyChanges></Clock>\n";TMS_Ibrahim-44-1;75.028;1.0.0.561;1;v;-671055823;2.0.10.242;2.0.10.242;11/07/2022;07/11/2022 14:06;15:06:45;2.0.10.147;0;;-999999;42;29728;0;1;2332;32060;1;1;1;2;1;0;1;BlockProcFischi;BlockList;1;100;0;;-999999;32;33856;0;1;1422;35278;1;1;1;1;ProcFischi1;ListBlockFischi;55;0;2;0;0;5;Pr4_B;;1;op;1;2;13;1;55;1;0;TrialProc;2495;669;Pr4_B;258;1509;1242;ListFischi1;0;;2;203;431479;8;15;1622;433101;342;1;1;1;288;276;-341;1;0
TMS_Ibrahim;44;1;"<?xml version=""1.0""?>\n<Clock xmlns:dt=""urn:schemas-microsoft-com:datatypes""><Description dt:dt=""string"">E-Prime Primary Realtime Clock</Description><StartTime><Timestamp dt:dt=""int"">0</Timestamp><DateUtc dt:dt=""string"">2022-11-07T14:06:45Z</DateUtc></StartTime><FrequencyChanges><FrequencyChange><Frequency dt:dt=""r8"">3312890</Frequency><Timestamp dt:dt=""r8"">12213188206</Timestamp><Current dt:dt=""r8"">0</Current><DateUtc dt:dt=""string"">2022-11-07T14:06:45Z</DateUtc></FrequencyChange></FrequencyChanges></Clock>\n";TMS_Ibrahim-44-1;75.028;1.0.0.561;1;v;-671055823;2.0.10.242;2.0.10.242;11/07/2022;07/11/2022 14:06;15:06:45;2.0.10.147;0;;-999999;42;29728;0;1;2332;32060;1;1;1;2;1;0;1;BlockProcFischi;BlockList;1;100;0;;-999999;32;33856;0;1;1422;35278;1;1;1;1;ProcFischi1;ListBlockFischi;56;1;1;0;0;5;Po5_B;100;4;ug;5;2;57;1;56;4;1;TrialProc;1306;984;Po5_B;201;1276;1477;ListFischi1;0;;2;201;438455;16;15;1302;439757;262;1;1302;1;751;586;1040;1;1
TMS_Ibrahim;44;1;"<?xml version=""1.0""?>\n<Clock xmlns:dt=""urn:schemas-microsoft-com:datatypes""><Description dt:dt=""string"">E-Prime Primary Realtime Clock</Description><StartTime><Timestamp dt:dt=""int"">0</Timestamp><DateUtc dt:dt=""string"">2022-11-07T14:06:45Z</DateUtc></StartTime><FrequencyChanges><FrequencyChange><Frequency dt:dt=""r8"">3312890</Frequency><Timestamp dt:dt=""r8"">12213188206</Timestamp><Current dt:dt=""r8"">0</Current><DateUtc dt:dt=""string"">2022-11-07T14:06:45Z</DateUtc></FrequencyChange></FrequencyChanges></Clock>\n";TMS_Ibrahim-44-1;75.028;1.0.0.561;1;v;-671055823;2.0.10.242;2.0.10.242;11/07/2022;07/11/2022 14:06;15:06:45;2.0.10.147;0;;-999999;42;29728;0;1;2332;32060;1;1;1;2;1;0;1;BlockProcFischi;BlockList;1;100;0;;-999999;32;33856;0;1;1422;35278;1;1;1;1;ProcFischi1;ListBlockFischi;57;1;2;0;0;3;Pr2_B;100;3;ug;3;2;27;1;57;3;1;TrialProc;650;718;Pr2_B;72;1178;1250;ListFischi1;0;;2;203;445720;15;13;1204;446924;276;1;1204;1;178;412;928;1;1
TMS_Ibrahim;44;1;"<?xml version=""1.0""?>\n<Clock xmlns:dt=""urn:schemas-microsoft-com:datatypes""><Description dt:dt=""string"">E-Prime Primary Realtime Clock</Description><StartTime><Timestamp dt:dt=""int"">0</Timestamp><DateUtc dt:dt=""string"">2022-11-07T14:06:45Z</DateUtc></StartTime><FrequencyChanges><FrequencyChange><Frequency dt:dt=""r8"">3312890</Frequency><Timestamp dt:dt=""r8"">12213188206</Timestamp><Current dt:dt=""r8"">0</Current><DateUtc dt:dt=""string"">2022-11-07T14:06:45Z</DateUtc></FrequencyChange></FrequencyChanges></Clock>\n";TMS_Ibrahim-44-1;75.028;1.0.0.561;1;v;-671055823;2.0.10.242;2.0.10.242;11/07/2022;07/11/2022 14:06;15:06:45;2.0.10.147;0;;-999999;42;29728;0;1;2332;32060;1;1;1;2;1;0;1;BlockProcFischi;BlockList;1;100;0;;-999999;32;33856;0;1;1422;35278;1;1;1;1;ProcFischi1;ListBlockFischi;58;1;2;0;0;3;Pr4_B;75;3;ug;3;2;29;1;58;3;1;TrialProc;712;674;Pr4_B;162;1409;1247;ListFischi1;0;;2;201;453241;11;13;1427;454668;243;1;1427;1;489;381;1184;1;1
TMS_Ibrahim;44;1;"<?xml version=""1.0""?>\n<Clock xmlns:dt=""urn:schemas-microsoft-com:datatypes""><Description dt:dt=""string"">E-Prime Primary Realtime Clock</Description><StartTime><Timestamp dt:dt=""int"">0</Timestamp><DateUtc dt:dt=""string"">2022-11-07T14:06:45Z</DateUtc></StartTime><FrequencyChanges><FrequencyChange><Frequency dt:dt=""r8"">3312890</Frequency><Timestamp dt:dt=""r8"">12213188206</Timestamp><Current dt:dt=""r8"">0</Current><DateUtc dt:dt=""string"">2022-11-07T14:06:45Z</DateUtc></FrequencyChange></FrequencyChanges></Clock>\n";TMS_Ibrahim-44-1;75.028;1.0.0.561;1;v;-671055823;2.0.10.242;2.0.10.242;11/07/2022;07/11/2022 14:06;15:06:45;2.0.10.147;0;;-999999;42;29728;0;1;2332;32060;1;1;1;2;1;0;1;BlockProcFischi;BlockList;1;100;0;;-999999;32;33856;0;1;1422;35278;1;1;1;1;ProcFischi1;ListBlockFischi;59;1;1;0;0;3;Po8_B;125;2;op;3;2;42;1;59;2;0;TrialProc;542;1242;Po8_B;155;1419;1573;ListFischi1;0;;2;203;460416;6;13;1452;461868;316;1;1452;1;583;554;1136;1;1
TMS_Ibrahim;44;1;"<?xml version=""1.0""?>\n<Clock xmlns:dt=""urn:schemas-microsoft-com:datatypes""><Description dt:dt=""string"">E-Prime Primary Realtime Clock</Description><StartTime><Timestamp dt:dt=""int"">0</Timestamp><DateUtc dt:dt=""string"">2022-11-07T14:06:45Z</DateUtc></StartTime><FrequencyChanges><FrequencyChange><Frequency dt:dt=""r8"">3312890</Frequency><Timestamp dt:dt=""r8"">12213188206</Timestamp><Current dt:dt=""r8"">0</Current><DateUtc dt:dt=""string"">2022-11-07T14:06:45Z</DateUtc></FrequencyChange></FrequencyChanges></Clock>\n";TMS_Ibrahim-44-1;75.028;1.0.0.561;1;v;-671055823;2.0.10.242;2.0.10.242;11/07/2022;07/11/2022 14:06;15:06:45;2.0.10.147;0;;-999999;42;29728;0;1;2332;32060;1;1;1;2;1;0;1;BlockProcFischi;BlockList;1;100;0;;-999999;32;33856;0;1;1422;35278;1;1;1;1;ProcFischi1;ListBlockFischi;60;1;1;0;1;5;Po4_B;100;4;ug;5;2;56;1;60;4;1;TrialProc;693;1342;Po4_B;202;1514;1716;ListFischi1;0;;2;201;467792;14;15;1548;469340;364;1;1548;1;66;589;1184;1;1
TMS_Ibrahim;44;1;"<?xml version=""1.0""?>\n<Clock xmlns:dt=""urn:schemas-microsoft-com:datatypes""><Description dt:dt=""string"">E-Prime Primary Realtime Clock</Description><StartTime><Timestamp dt:dt=""int"">0</Timestamp><DateUtc dt:dt=""string"">2022-11-07T14:06:45Z</DateUtc></StartTime><FrequencyChanges><FrequencyChange><Frequency dt:dt=""r8"">3312890</Frequency><Timestamp dt:dt=""r8"">12213188206</Timestamp><Current dt:dt=""r8"">0</Current><DateUtc dt:dt=""string"">2022-11-07T14:06:45Z</DateUtc></FrequencyChange></FrequencyChanges></Clock>\n";TMS_Ibrahim-44-1;75.028;1.0.0.561;1;v;-671055823;2.0.10.242;2.0.10.242;11/07/2022;07/11/2022 14:06;15:06:45;2.0.10.147;0;;-999999;42;29728;0;1;2332;32060;1;1;1;2;1;0;1;BlockProcFischi;BlockList;1;100;0;;-999999;32;33856;0;1;1422;35278;1;1;1;1;ProcFischi1;ListBlockFischi;61;1;1;1;2;5;Pomod_B;100;4;ug;5;2;63;1;61;4;1;TrialProc;662;1309;Pomod_B;153;1823;1669;ListFischi1;0;;2;203;475183;7;155;2220;477403;540;1;1852;1;391;463;1312;1;1
TMS_Ibrahim;44;1;"<?xml version=""1.0""?>\n<Clock xmlns:dt=""urn:schemas-microsoft-com:datatypes""><Description dt:dt=""string"">E-Prime Primary Realtime Clock</Description><StartTime><Timestamp dt:dt=""int"">0</Timestamp><DateUtc dt:dt=""string"">2022-11-07T14:06:45Z</DateUtc></StartTime><FrequencyChanges><FrequencyChange><Frequency dt:dt=""r8"">3312890</Frequency><Timestamp dt:dt=""r8"">12213188206</Timestamp><Current dt:dt=""r8"">0</Current><DateUtc dt:dt=""string"">2022-11-07T14:06:45Z</DateUtc></FrequencyChange></FrequencyChanges></Clock>\n";TMS_Ibrahim-44-1;75.028;1.0.0.561;1;v;-671055823;2.0.10.242;2.0.10.242;11/07/2022;07/11/2022 14:06;15:06:45;2.0.10.147;0;;-999999;42;29728;0;1;2332;32060;1;1;1;2;1;0;1;BlockProcFischi;BlockList;1;100;0;;-999999;32;33856;0;1;1422;35278;1;1;1;1;ProcFischi1;ListBlockFischi;62;1;1;0;0;5;Po2_B;125;4;ug;5;2;59;1;62;4;1;TrialProc;801;1583;Po2_B;371;1438;1808;ListFischi1;0;;1;202;481933;14;15;1470;483403;350;1;1470;1;15;343;1120;1;1
TMS_Ibrahim;44;1;"<?xml version=""1.0""?>\n<Clock xmlns:dt=""urn:schemas-microsoft-com:datatypes""><Description dt:dt=""string"">E-Prime Primary Realtime Clock</Description><StartTime><Timestamp dt:dt=""int"">0</Timestamp><DateUtc dt:dt=""string"">2022-11-07T14:06:45Z</DateUtc></StartTime><FrequencyChanges><FrequencyChange><Frequency dt:dt=""r8"">3312890</Frequency><Timestamp dt:dt=""r8"">12213188206</Timestamp><Current dt:dt=""r8"">0</Current><DateUtc dt:dt=""string"">2022-11-07T14:06:45Z</DateUtc></FrequencyChange></FrequencyChanges></Clock>\n";TMS_Ibrahim-44-1;75.028;1.0.0.561;1;v;-671055823;2.0.10.242;2.0.10.242;11/07/2022;07/11/2022 14:06;15:06:45;2.0.10.147;0;;-999999;42;29728;0;1;2332;32060;1;1;1;2;1;0;1;BlockProcFischi;BlockList;1;100;0;;-999999;32;33856;0;1;1422;35278;1;1;1;1;ProcFischi1;ListBlockFischi;63;1;2;0;1;3;Pr5_B;75;3;ug;3;2;25;1;63;3;1;TrialProc;982;674;Pr5_B;194;1467;1274;ListFischi1;0;;2;203;489411;13;13;1496;490907;408;1;1496;1;601;257;1088;1;1
TMS_Ibrahim;44;1;"<?xml version=""1.0""?>\n<Clock xmlns:dt=""urn:schemas-microsoft-com:datatypes""><Description dt:dt=""string"">E-Prime Primary Realtime Clock</Description><StartTime><Timestamp dt:dt=""int"">0</Timestamp><DateUtc dt:dt=""string"">2022-11-07T14:06:45Z</DateUtc></StartTime><FrequencyChanges><FrequencyChange><Frequency dt:dt=""r8"">3312890</Frequency><Timestamp dt:dt=""r8"">12213188206</Timestamp><Current dt:dt=""r8"">0</Current><DateUtc dt:dt=""string"">2022-11-07T14:06:45Z</DateUtc></FrequencyChange></FrequencyChanges></Clock>\n";TMS_Ibrahim-44-1;75.028;1.0.0.561;1;v;-671055823;2.0.10.242;2.0.10.242;11/07/2022;07/11/2022 14:06;15:06:45;2.0.10.147;0;;-999999;42;29728;0;1;2332;32060;1;1;1;2;1;0;1;BlockProcFischi;BlockList;1;100;0;;-999999;32;33856;0;1;1422;35278;1;1;1;1;ProcFischi1;ListBlockFischi;64;0;2;0;0;5;Pr4_B;;1;op;1;2;3;1;64;1;0;TrialProc;1349;678;Pr4_B;194;1467;1251;ListFischi1;0;;2;201;496339;16;15;1783;498122;344;1;1;1;431;441;-343;1;0
TMS_Ibrahim;44;4;"<?xml version=""1.0""?>\n<Clock xmlns:dt=""urn:schemas-microsoft-com:datatypes""><Description dt:dt=""string"">E-Prime Primary Realtime Clock</Description><StartTime><Timestamp dt:dt=""int"">0</Timestamp><DateUtc dt:dt=""string"">2022-11-07T15:07:41Z</DateUtc></StartTime><FrequencyChanges><FrequencyChange><Frequency dt:dt=""r8"">3312890</Frequency><Timestamp dt:dt=""r8"">24324157916</Timestamp><Current dt:dt=""r8"">0</Current><DateUtc dt:dt=""string"">2022-11-07T15:07:41Z</DateUtc></FrequencyChange></FrequencyChanges></Clock>\n";TMS_Ibrahim-44-4;75.028;1.0.0.561;1;;-1444976701;2.0.10.242;2.0.10.242;11/07/2022;07/11/2022 15:07;16:07:41;2.0.10.147;0;;-999999;20;24019;0;1;1230;25249;1;1;1;2;1;0;1;BlockProcFischi;BlockList;1;125;0;;-999999;13;26945;0;1;1216;28161;1;1;1;1;ProcFischi1;ListBlockFischi;1;1;1;0;0;3;Po3_B;250;2;op;3;2;44;1;1;2;0;TrialProc;1580;1368;Po3_B;107;1528;1635;ListFischi1;0;;5;210;31540;16;13;1566;33106;638;1;1566;1;689;459;928;1;1
TMS_Ibrahim;44;4;"<?xml version=""1.0""?>\n<Clock xmlns:dt=""urn:schemas-microsoft-com:datatypes""><Description dt:dt=""string"">E-Prime Primary Realtime Clock</Description><StartTime><Timestamp dt:dt=""int"">0</Timestamp><DateUtc dt:dt=""string"">2022-11-07T15:07:41Z</DateUtc></StartTime><FrequencyChanges><FrequencyChange><Frequency dt:dt=""r8"">3312890</Frequency><Timestamp dt:dt=""r8"">24324157916</Timestamp><Current dt:dt=""r8"">0</Current><DateUtc dt:dt=""string"">2022-11-07T15:07:41Z</DateUtc></FrequencyChange></FrequencyChanges></Clock>\n";TMS_Ibrahim-44-4;75.028;1.0.0.561;1;;-1444976701;2.0.10.242;2.0.10.242;11/07/2022;07/11/2022 15:07;16:07:41;2.0.10.147;0;;-999999;20;24019;0;1;1230;25249;1;1;1;2;1;0;1;BlockProcFischi;BlockList;1;125;0;;-999999;13;26945;0;1;1216;28161;1;1;1;1;ProcFischi1;ListBlockFischi;2;1;1;0;0;5;Po4_B;250;4;ug;5;2;51;1;2;4;1;TrialProc;2233;1343;Po4_B;387;1329;1716;ListFischi1;0;;1;204;39313;13;15;1360;40673;240;1;1360;1;834;485;1120;1;1
TMS_Ibrahim;44;4;"<?xml version=""1.0""?>\n<Clock xmlns:dt=""urn:schemas-microsoft-com:datatypes""><Description dt:dt=""string"">E-Prime Primary Realtime Clock</Description><StartTime><Timestamp dt:dt=""int"">0</Timestamp><DateUtc dt:dt=""string"">2022-11-07T15:07:41Z</DateUtc></StartTime><FrequencyChanges><FrequencyChange><Frequency dt:dt=""r8"">3312890</Frequency><Timestamp dt:dt=""r8"">24324157916</Timestamp><Current dt:dt=""r8"">0</Current><DateUtc dt:dt=""string"">2022-11-07T15:07:41Z</DateUtc></FrequencyChange></FrequencyChanges></Clock>\n";TMS_Ibrahim-44-4;75.028;1.0.0.561;1;;-1444976701;2.0.10.242;2.0.10.242;11/07/2022;07/11/2022 15:07;16:07:41;2.0.10.147;0;;-999999;20;24019;0;1;1230;25249;1;1;1;2;1;0;1;BlockProcFischi;BlockList;1;125;0;;-999999;13;26945;0;1;1216;28161;1;1;1;1;ProcFischi1;ListBlockFischi;3;1;2;0;0;5;Pr5_B;250;1;op;5;2;14;1;3;1;0;TrialProc;2004;672;Pr5_B;69;1202;1271;ListFischi1;0;;2;203;47458;12;15;1231;48689;271;1;1231;1;1196;304;960;1;1
TMS_Ibrahim;44;4;"<?xml version=""1.0""?>\n<Clock xmlns:dt=""urn:schemas-microsoft-com:datatypes""><Description dt:dt=""string"">E-Prime Primary Realtime Clock</Description><StartTime><Timestamp dt:dt=""int"">0</Timestamp><DateUtc dt:dt=""string"">2022-11-07T15:07:41Z</DateUtc></StartTime><FrequencyChanges><FrequencyChange><Frequency dt:dt=""r8"">3312890</Frequency><Timestamp dt:dt=""r8"">24324157916</Timestamp><Current dt:dt=""r8"">0</Current><DateUtc dt:dt=""string"">2022-11-07T15:07:41Z</DateUtc></FrequencyChange></FrequencyChanges></Clock>\n";TMS_Ibrahim-44-4;75.028;1.0.0.561;1;;-1444976701;2.0.10.242;2.0.10.242;11/07/2022;07/11/2022 15:07;16:07:41;2.0.10.147;0;;-999999;20;24019;0;1;1230;25249;1;1;1;2;1;0;1;BlockProcFischi;BlockList;1;125;0;;-999999;13;26945;0;1;1216;28161;1;1;1;1;ProcFischi1;ListBlockFischi;4;1;1;0;1;5;Po2_B;250;4;ug;5;2;49;1;4;4;1;TrialProc;1319;1575;Po2_B;324;1478;1802;ListFischi1;0;;2;201;55379;8;15;1502;56881;190;1;1502;1;888;449;1312;1;1
TMS_Ibrahim;44;4;"<?xml version=""1.0""?>\n<Clock xmlns:dt=""urn:schemas-microsoft-com:datatypes""><Description dt:dt=""string"">E-Prime Primary Realtime Clock</Description><StartTime><Timestamp dt:dt=""int"">0</Timestamp><DateUtc dt:dt=""string"">2022-11-07T15:07:41Z</DateUtc></StartTime><FrequencyChanges><FrequencyChange><Frequency dt:dt=""r8"">3312890</Frequency><Timestamp dt:dt=""r8"">24324157916</Timestamp><Current dt:dt=""r8"">0</Current><DateUtc dt:dt=""string"">2022-11-07T15:07:41Z</DateUtc></FrequencyChange></FrequencyChanges></Clock>\n";TMS_Ibrahim-44-4;75.028;1.0.0.561;1;;-1444976701;2.0.10.242;2.0.10.242;11/07/2022;07/11/2022 15:07;16:07:41;2.0.10.147;0;;-999999;20;24019;0;1;1230;25249;1;1;1;2;1;0;1;BlockProcFischi;BlockList;1;125;0;;-999999;13;26945;0;1;1216;28161;1;1;1;1;ProcFischi1;ListBlockFischi;5;1;1;1;0;3;Pomod_B;225;2;op;3;2;48;1;5;2;0;TrialProc;2448;1311;Pomod_B;435;2108;1673;ListFischi1;0;;2;203;63960;10;13;2136;66096;296;1;2136;1;1299;528;1840;1;1
TMS_Ibrahim;44;4;"<?xml version=""1.0""?>\n<Clock xmlns:dt=""urn:schemas-microsoft-com:datatypes""><Description dt:dt=""string"">E-Prime Primary Realtime Clock</Description><StartTime><Timestamp dt:dt=""int"">0</Timestamp><DateUtc dt:dt=""string"">2022-11-07T15:07:41Z</DateUtc></StartTime><FrequencyChanges><FrequencyChange><Frequency dt:dt=""r8"">3312890</Frequency><Timestamp dt:dt=""r8"">24324157916</Timestamp><Current dt:dt=""r8"">0</Current><DateUtc dt:dt=""string"">2022-11-07T15:07:41Z</DateUtc></FrequencyChange></FrequencyChanges></Clock>\n";TMS_Ibrahim-44-4;75.028;1.0.0.561;1;;-1444976701;2.0.10.242;2.0.10.242;11/07/2022;07/11/2022 15:07;16:07:41;2.0.10.147;0;;-999999;20;24019;0;1;1230;25249;1;1;1;2;1;0;1;BlockProcFischi;BlockList;1;125;0;;-999999;13;26945;0;1;1216;28161;1;1;1;1;ProcFischi1;ListBlockFischi;6;1;2;0;0;3;Pr3_B;250;3;ug;3;2;18;1;6;3;1;TrialProc;784;718;Pr3_B;62;1781;1718;ListFischi1;0;;2;201;71817;17;133;3879;75696;392;1;1815;1;1458;234;1423;1;1
TMS_Ibrahim;44;4;"<?xml version=""1.0""?>\n<Clock xmlns:dt=""urn:schemas-microsoft-com:datatypes""><Description dt:dt=""string"">E-Prime Primary Realtime Clock</Description><StartTime><Timestamp dt:dt=""int"">0</Timestamp><DateUtc dt:dt=""string"">2022-11-07T15:07:41Z</DateUtc></StartTime><FrequencyChanges><FrequencyChange><Frequency dt:dt=""r8"">3312890</Frequency><Timestamp dt:dt=""r8"">24324157916</Timestamp><Current dt:dt=""r8"">0</Current><DateUtc dt:dt=""string"">2022-11-07T15:07:41Z</DateUtc></FrequencyChange></FrequencyChanges></Clock>\n";TMS_Ibrahim-44-4;75.028;1.0.0.561;1;;-1444976701;2.0.10.242;2.0.10.242;11/07/2022;07/11/2022 15:07;16:07:41;2.0.10.147;0;;-999999;20;24019;0;1;1230;25249;1;1;1;2;1;0;1;BlockProcFischi;BlockList;1;125;0;;-999999;13;26945;0;1;1216;28161;1;1;1;1;ProcFischi1;ListBlockFischi;7;1;1;0;1;3;Po3_B;225;2;op;3;2;39;1;7;2;0;TrialProc;2092;1320;Po3_B;79;1508;1587;ListFischi1;0;;2;203;78692;19;13;1532;80224;412;1;1532;1;840;381;1120;1;1
TMS_Ibrahim;44;4;"<?xml version=""1.0""?>\n<Clock xmlns:dt=""urn:schemas-microsoft-com:datatypes""><Description dt:dt=""string"">E-Prime Primary Realtime Clock</Description><StartTime><Timestamp dt:dt=""int"">0</Timestamp><DateUtc dt:dt=""string"">2022-11-07T15:07:41Z</DateUtc></StartTime><FrequencyChanges><FrequencyChange><Frequency dt:dt=""r8"">3312890</Frequency><Timestamp dt:dt=""r8"">24324157916</Timestamp><Current dt:dt=""r8"">0</Current><DateUtc dt:dt=""string"">2022-11-07T15:07:41Z</DateUtc></FrequencyChange></FrequencyChanges></Clock>\n";TMS_Ibrahim-44-4;75.028;1.0.0.561;1;;-1444976701;2.0.10.242;2.0.10.242;11/07/2022;07/11/2022 15:07;16:07:41;2.0.10.147;0;;-999999;20;24019;0;1;1230;25249;1;1;1;2;1;0;1;BlockProcFischi;BlockList;1;125;0;;-999999;13;26945;0;1;1216;28161;1;1;1;1;ProcFischi1;ListBlockFischi;8;1;2;1;0;3;Prmod_B;225;3;ug;3;2;32;1;8;3;1;TrialProc;2582;1312;Prmod_B;45;1690;1646;ListFischi1;0;;2;203;86469;12;13;1722;88191;427;1;1722;1;1449;404;1295;1;1
TMS_Ibrahim;44;4;"<?xml version=""1.0""?>\n<Clock xmlns:dt=""urn:schemas-microsoft-com:datatypes""><Description dt:dt=""string"">E-Prime Primary Realtime Clock</Description><StartTime><Timestamp dt:dt=""int"">0</Timestamp><DateUtc dt:dt=""string"">2022-11-07T15:07:41Z</DateUtc></StartTime><FrequencyChanges><FrequencyChange><Frequency dt:dt=""r8"">3312890</Frequency><Timestamp dt:dt=""r8"">24324157916</Timestamp><Current dt:dt=""r8"">0</Current><DateUtc dt:dt=""string"">2022-11-07T15:07:41Z</DateUtc></FrequencyChange></FrequencyChanges></Clock>\n";TMS_Ibrahim-44-4;75.028;1.0.0.561;1;;-1444976701;2.0.10.242;2.0.10.242;11/07/2022;07/11/2022 15:07;16:07:41;2.0.10.147;0;;-999999;20;24019;0;1;1230;25249;1;1;1;2;1;0;1;BlockProcFischi;BlockList;1;125;0;;-999999;13;26945;0;1;1216;28161;1;1;1;1;ProcFischi1;ListBlockFischi;9;1;2;0;0;3;Pr5_B;200;3;ug;3;2;25;1;9;3;1;TrialProc;2195;672;Pr5_B;83;1354;1271;ListFischi1;0;;2;203;94962;9;13;1373;96335;237;1;1373;1;1010;244;1136;1;1
TMS_Ibrahim;44;4;"<?xml version=""1.0""?>\n<Clock xmlns:dt=""urn:schemas-microsoft-com:datatypes""><Description dt:dt=""string"">E-Prime Primary Realtime Clock</Description><StartTime><Timestamp dt:dt=""int"">0</Timestamp><DateUtc dt:dt=""string"">2022-11-07T15:07:41Z</DateUtc></StartTime><FrequencyChanges><FrequencyChange><Frequency dt:dt=""r8"">3312890</Frequency><Timestamp dt:dt=""r8"">24324157916</Timestamp><Current dt:dt=""r8"">0</Current><DateUtc dt:dt=""string"">2022-11-07T15:07:41Z</DateUtc></FrequencyChange></FrequencyChanges></Clock>\n";TMS_Ibrahim-44-4;75.028;1.0.0.561;1;;-1444976701;2.0.10.242;2.0.10.242;11/07/2022;07/11/2022 15:07;16:07:41;2.0.10.147;0;;-999999;20;24019;0;1;1230;25249;1;1;1;2;1;0;1;BlockProcFischi;BlockList;1;125;0;;-999999;13;26945;0;1;1216;28161;1;1;1;1;ProcFischi1;ListBlockFischi;10;1;2;0;0;3;Pr3_B;175;3;ug;3;2;23;1;10;3;1;TrialProc;1698;711;Pr3_B;43;1753;1710;ListFischi1;0;;2;203;103358;10;13;1777;105135;353;1;1777;1;993;577;1424;1;1
TMS_Ibrahim;44;4;"<?xml version=""1.0""?>\n<Clock xmlns:dt=""urn:schemas-microsoft-com:datatypes""><Description dt:dt=""string"">E-Prime Primary Realtime Clock</Description><StartTime><Timestamp dt:dt=""int"">0</Timestamp><DateUtc dt:dt=""string"">2022-11-07T15:07:41Z</DateUtc></StartTime><FrequencyChanges><FrequencyChange><Frequency dt:dt=""r8"">3312890</Frequency><Timestamp dt:dt=""r8"">24324157916</Timestamp><Current dt:dt=""r8"">0</Current><DateUtc dt:dt=""string"">2022-11-07T15:07:41Z</DateUtc></FrequencyChange></FrequencyChanges></Clock>\n";TMS_Ibrahim-44-4;75.028;1.0.0.561;1;;-1444976701;2.0.10.242;2.0.10.242;11/07/2022;07/11/2022 15:07;16:07:41;2.0.10.147;0;;-999999;20;24019;0;1;1230;25249;1;1;1;2;1;0;1;BlockProcFischi;BlockList;1;125;0;;-999999;13;26945;0;1;1216;28161;1;1;1;1;ProcFischi1;ListBlockFischi;11;1;2;0;0;5;Pr3_B;225;1;op;5;2;12;1;11;1;0;TrialProc;3064;714;Pr3_B;6;1709;1715;ListFischi1;0;;2;203;111766;12;15;1737;113503;169;1;1737;1;1116;459;1568;1;1
TMS_Ibrahim;44;4;"<?xml version=""1.0""?>\n<Clock xmlns:dt=""urn:schemas-microsoft-com:datatypes""><Description dt:dt=""string"">E-Prime Primary Realtime Clock</Description><StartTime><Timestamp dt:dt=""int"">0</Timestamp><DateUtc dt:dt=""string"">2022-11-07T15:07:41Z</DateUtc></StartTime><FrequencyChanges><FrequencyChange><Frequency dt:dt=""r8"">3312890</Frequency><Timestamp dt:dt=""r8"">24324157916</Timestamp><Current dt:dt=""r8"">0</Current><DateUtc dt:dt=""string"">2022-11-07T15:07:41Z</DateUtc></FrequencyChange></FrequencyChanges></Clock>\n";TMS_Ibrahim-44-4;75.028;1.0.0.561;1;;-1444976701;2.0.10.242;2.0.10.242;11/07/2022;07/11/2022 15:07;16:07:41;2.0.10.147;0;;-999999;20;24019;0;1;1230;25249;1;1;1;2;1;0;1;BlockProcFischi;BlockList;1;125;0;;-999999;13;26945;0;1;1216;28161;1;1;1;1;ProcFischi1;ListBlockFischi;12;1;1;0;2;5;Po8_B;250;4;ug;5;2;58;1;12;4;1;TrialProc;2753;1243;Po8_B;201;1779;1577;ListFischi1;0;;2;203;120619;9;15;1811;122430;467;1;1811;1;1679;319;1344;1;1
TMS_Ibrahim;44;4;"<?xml version=""1.0""?>\n<Clock xmlns:dt=""urn:schemas-microsoft-com:datatypes""><Description dt:dt=""string"">E-Prime Primary Realtime Clock</Description><StartTime><Timestamp dt:dt=""int"">0</Timestamp><DateUtc dt:dt=""string"">2022-11-07T15:07:41Z</DateUtc></StartTime><FrequencyChanges><FrequencyChange><Frequency dt:dt=""r8"">3312890</Frequency><Timestamp dt:dt=""r8"">24324157916</Timestamp><Current dt:dt=""r8"">0</Current><DateUtc dt:dt=""string"">2022-11-07T15:07:41Z</DateUtc></FrequencyChange></FrequencyChanges></Clock>\n";TMS_Ibrahim-44-4;75.028;1.0.0.561;1;;-1444976701;2.0.10.242;2.0.10.242;11/07/2022;07/11/2022 15:07;16:07:41;2.0.10.147;0;;-999999;20;24019;0;1;1230;25249;1;1;1;2;1;0;1;BlockProcFischi;BlockList;1;125;0;;-999999;13;26945;0;1;1216;28161;1;1;1;1;ProcFischi1;ListBlockFischi;13;1;1;0;0;3;Po2_B;200;2;op;3;2;38;1;13;2;0;TrialProc;1528;1582;Po2_B;111;1699;1809;ListFischi1;0;;2;203;129089;15;13;1725;130814;525;1;1725;1;3042;353;1200;1;1
TMS_Ibrahim;44;4;"<?xml version=""1.0""?>\n<Clock xmlns:dt=""urn:schemas-microsoft-com:datatypes""><Description dt:dt=""string"">E-Prime Primary Realtime Clock</Description><StartTime><Timestamp dt:dt=""int"">0</Timestamp><DateUtc dt:dt=""string"">2022-11-07T15:07:41Z</DateUtc></StartTime><FrequencyChanges><FrequencyChange><Frequency dt:dt=""r8"">3312890</Frequency><Timestamp dt:dt=""r8"">24324157916</Timestamp><Current dt:dt=""r8"">0</Current><DateUtc dt:dt=""string"">2022-11-07T15:07:41Z</DateUtc></FrequencyChange></FrequencyChanges></Clock>\n";TMS_Ibrahim-44-4;75.028;1.0.0.561;1;;-1444976701;2.0.10.242;2.0.10.242;11/07/2022;07/11/2022 15:07;16:07:41;2.0.10.147;0;;-999999;20;24019;0;1;1230;25249;1;1;1;2;1;0;1;BlockProcFischi;BlockList;1;125;0;;-999999;13;26945;0;1;1216;28161;1;1;1;1;ProcFischi1;ListBlockFischi;14;1;2;0;0;5;Pr3_B;200;1;op;5;2;7;1;14;1;0;TrialProc;2436;710;Pr3_B;63;1647;1710;ListFischi1;0;;2;203;138145;9;15;1677;139822;381;1;1677;1;1693;541;1296;1;1
TMS_Ibrahim;44;4;"<?xml version=""1.0""?>\n<Clock xmlns:dt=""urn:schemas-microsoft-com:datatypes""><Description dt:dt=""string"">E-Prime Primary Realtime Clock</Description><StartTime><Timestamp dt:dt=""int"">0</Timestamp><DateUtc dt:dt=""string"">2022-11-07T15:07:41Z</DateUtc></StartTime><FrequencyChanges><FrequencyChange><Frequency dt:dt=""r8"">3312890</Frequency><Timestamp dt:dt=""r8"">24324157916</Timestamp><Current dt:dt=""r8"">0</Current><DateUtc dt:dt=""string"">2022-11-07T15:07:41Z</DateUtc></FrequencyChange></FrequencyChanges></Clock>\n";TMS_Ibrahim-44-4;75.028;1.0.0.561;1;;-1444976701;2.0.10.242;2.0.10.242;11/07/2022;07/11/2022 15:07;16:07:41;2.0.10.147;0;;-999999;20;24019;0;1;1230;25249;1;1;1;2;1;0;1;BlockProcFischi;BlockList;1;125;0;;-999999;13;26945;0;1;1216;28161;1;1;1;1;ProcFischi1;ListBlockFischi;15;1;2;0;0;3;Pr8_B;150;3;ug;3;2;21;1;15;3;1;TrialProc;2984;719;Pr8_B;42;1786;1745;ListFischi1;0;;2;203;147440;17;133;2445;149885;461;1;1821;1;1387;271;1360;1;1
TMS_Ibrahim;44;4;"<?xml version=""1.0""?>\n<Clock xmlns:dt=""urn:schemas-microsoft-com:datatypes""><Description dt:dt=""string"">E-Prime Primary Realtime Clock</Description><StartTime><Timestamp dt:dt=""int"">0</Timestamp><DateUtc dt:dt=""string"">2022-11-07T15:07:41Z</DateUtc></StartTime><FrequencyChanges><FrequencyChange><Frequency dt:dt=""r8"">3312890</Frequency><Timestamp dt:dt=""r8"">24324157916</Timestamp><Current dt:dt=""r8"">0</Current><DateUtc dt:dt=""string"">2022-11-07T15:07:41Z</DateUtc></FrequencyChange></FrequencyChanges></Clock>\n";TMS_Ibrahim-44-4;75.028;1.0.0.561;1;;-1444976701;2.0.10.242;2.0.10.242;11/07/2022;07/11/2022 15:07;16:07:41;2.0.10.147;0;;-999999;20;24019;0;1;1230;25249;1;1;1;2;1;0;1;BlockProcFischi;BlockList;1;125;0;;-999999;13;26945;0;1;1216;28161;1;1;1;1;ProcFischi1;ListBlockFischi;16;1;2;0;0;5;Pr8_B;175;1;op;5;2;10;1;16;1;0;TrialProc;607;710;Pr8_B;274;2010;1735;ListFischi1;0;;2;203;157045;8;15;2040;159085;216;1;2040;1;2519;342;1824;1;1
TMS_Ibrahim;44;4;"<?xml version=""1.0""?>\n<Clock xmlns:dt=""urn:schemas-microsoft-com:datatypes""><Description dt:dt=""string"">E-Prime Primary Realtime Clock</Description><StartTime><Timestamp dt:dt=""int"">0</Timestamp><DateUtc dt:dt=""string"">2022-11-07T15:07:41Z</DateUtc></StartTime><FrequencyChanges><FrequencyChange><Frequency dt:dt=""r8"">3312890</Frequency><Timestamp dt:dt=""r8"">24324157916</Timestamp><Current dt:dt=""r8"">0</Current><DateUtc dt:dt=""string"">2022-11-07T15:07:41Z</DateUtc></FrequencyChange></FrequencyChanges></Clock>\n";TMS_Ibrahim-44-4;75.028;1.0.0.561;1;;-1444976701;2.0.10.242;2.0.10.242;11/07/2022;07/11/2022 15:07;16:07:41;2.0.10.147;0;;-999999;20;24019;0;1;1230;25249;1;1;1;2;1;0;1;BlockProcFischi;BlockList;1;125;0;;-999999;13;26945;0;1;1216;28161;1;1;1;1;ProcFischi1;ListBlockFischi;17;1;1;0;0;3;Po5_B;175;2;op;3;2;41;1;17;2;0;TrialProc;1526;981;Po5_B;69;1406;1475;ListFischi1;0;;2;203;165104;13;133;1996;167100;382;1;1437;1;879;600;1055;1;1
TMS_Ibrahim;44;4;"<?xml version=""1.0""?>\n<Clock xmlns:dt=""urn:schemas-microsoft-com:datatypes""><Description dt:dt=""string"">E-Prime Primary Realtime Clock</Description><StartTime><Timestamp dt:dt=""int"">0</Timestamp><DateUtc dt:dt=""string"">2022-11-07T15:07:41Z</DateUtc></StartTime><FrequencyChanges><FrequencyChange><Frequency dt:dt=""r8"">3312890</Frequency><Timestamp dt:dt=""r8"">24324157916</Timestamp><Current dt:dt=""r8"">0</Current><DateUtc dt:dt=""string"">2022-11-07T15:07:41Z</DateUtc></FrequencyChange></FrequencyChanges></Clock>\n";TMS_Ibrahim-44-4;75.028;1.0.0.561;1;;-1444976701;2.0.10.242;2.0.10.242;11/07/2022;07/11/2022 15:07;16:07:41;2.0.10.147;0;;-999999;20;24019;0;1;1230;25249;1;1;1;2;1;0;1;BlockProcFischi;BlockList;1;125;0;;-999999;13;26945;0;1;1216;28161;1;1;1;1;ProcFischi1;ListBlockFischi;18;1;1;0;0;5;Po2_B;225;4;ug;5;2;54;1;18;4;1;TrialProc;1988;1583;Po2_B;68;1741;1809;ListFischi1;0;;2;203;172914;13;15;1770;174684;282;1;1770;1;657;514;1488;1;1
TMS_Ibrahim;44;4;"<?xml version=""1.0""?>\n<Clock xmlns:dt=""urn:schemas-microsoft-com:datatypes""><Description dt:dt=""string"">E-Prime Primary Realtime Clock</Description><StartTime><Timestamp dt:dt=""int"">0</Timestamp><DateUtc dt:dt=""string"">2022-11-07T15:07:41Z</DateUtc></StartTime><FrequencyChanges><FrequencyChange><Frequency dt:dt=""r8"">3312890</Frequency><Timestamp dt:dt=""r8"">24324157916</Timestamp><Current dt:dt=""r8"">0</Current><DateUtc dt:dt=""string"">2022-11-07T15:07:41Z</DateUtc></FrequencyChange></FrequencyChanges></Clock>\n";TMS_Ibrahim-44-4;75.028;1.0.0.561;1;;-1444976701;2.0.10.242;2.0.10.242;11/07/2022;07/11/2022 15:07;16:07:41;2.0.10.147;0;;-999999;20;24019;0;1;1230;25249;1;1;1;2;1;0;1;BlockProcFischi;BlockList;1;125;0;;-999999;13;26945;0;1;1216;28161;1;1;1;1;ProcFischi1;ListBlockFischi;19;1;1;0;0;5;Po4_B;200;4;ug;5;2;61;1;19;4;1;TrialProc;2446;1337;Po4_B;110;1600;1710;ListFischi1;0;;2;203;182421;9;15;1623;184044;503;1;1623;1;1750;217;1120;1;1
TMS_Ibrahim;44;4;"<?xml version=""1.0""?>\n<Clock xmlns:dt=""urn:schemas-microsoft-com:datatypes""><Description dt:dt=""string"">E-Prime Primary Realtime Clock</Description><StartTime><Timestamp dt:dt=""int"">0</Timestamp><DateUtc dt:dt=""string"">2022-11-07T15:07:41Z</DateUtc></StartTime><FrequencyChanges><FrequencyChange><Frequency dt:dt=""r8"">3312890</Frequency><Timestamp dt:dt=""r8"">24324157916</Timestamp><Current dt:dt=""r8"">0</Current><DateUtc dt:dt=""string"">2022-11-07T15:07:41Z</DateUtc></FrequencyChange></FrequencyChanges></Clock>\n";TMS_Ibrahim-44-4;75.028;1.0.0.561;1;;-1444976701;2.0.10.242;2.0.10.242;11/07/2022;07/11/2022 15:07;16:07:41;2.0.10.147;0;;-999999;20;24019;0;1;1230;25249;1;1;1;2;1;0;1;BlockProcFischi;BlockList;1;125;0;;-999999;13;26945;0;1;1216;28161;1;1;1;1;ProcFischi1;ListBlockFischi;20;1;2;1;1;5;Prmod_B;175;1;op;5;2;15;1;20;1;0;TrialProc;1455;1316;Prmod_B;85;1734;1650;ListFischi1;0;;2;203;191291;15;155;2944;194235;545;1;1761;1;1607;589;1216;1;1
TMS_Ibrahim;44;4;"<?xml version=""1.0""?>\n<Clock xmlns:dt=""urn:schemas-microsoft-com:datatypes""><Description dt:dt=""string"">E-Prime Primary Realtime Clock</Description><StartTime><Timestamp dt:dt=""int"">0</Timestamp><DateUtc dt:dt=""string"">2022-11-07T15:07:41Z</DateUtc></StartTime><FrequencyChanges><FrequencyChange><Frequency dt:dt=""r8"">3312890</Frequency><Timestamp dt:dt=""r8"">24324157916</Timestamp><Current dt:dt=""r8"">0</Current><DateUtc dt:dt=""string"">2022-11-07T15:07:41Z</DateUtc></FrequencyChange></FrequencyChanges></Clock>\n";TMS_Ibrahim-44-4;75.028;1.0.0.561;1;;-1444976701;2.0.10.242;2.0.10.242;11/07/2022;07/11/2022 15:07;16:07:41;2.0.10.147;0;;-999999;20;24019;0;1;1230;25249;1;1;1;2;1;0;1;BlockProcFischi;BlockList;1;125;0;;-999999;13;26945;0;1;1216;28161;1;1;1;1;ProcFischi1;ListBlockFischi;21;1;1;0;0;5;Po5_B;175;4;ug;5;2;62;1;21;4;1;TrialProc;2352;980;Po5_B;7;1465;1473;ListFischi1;0;;2;203;199839;11;15;1500;201339;492;1;1500;1;790;286;1008;1;1
TMS_Ibrahim;44;4;"<?xml version=""1.0""?>\n<Clock xmlns:dt=""urn:schemas-microsoft-com:datatypes""><Description dt:dt=""string"">E-Prime Primary Realtime Clock</Description><StartTime><Timestamp dt:dt=""int"">0</Timestamp><DateUtc dt:dt=""string"">2022-11-07T15:07:41Z</DateUtc></StartTime><FrequencyChanges><FrequencyChange><Frequency dt:dt=""r8"">3312890</Frequency><Timestamp dt:dt=""r8"">24324157916</Timestamp><Current dt:dt=""r8"">0</Current><DateUtc dt:dt=""string"">2022-11-07T15:07:41Z</DateUtc></FrequencyChange></FrequencyChanges></Clock>\n";TMS_Ibrahim-44-4;75.028;1.0.0.561;1;;-1444976701;2.0.10.242;2.0.10.242;11/07/2022;07/11/2022 15:07;16:07:41;2.0.10.147;0;;-999999;20;24019;0;1;1230;25249;1;1;1;2;1;0;1;BlockProcFischi;BlockList;1;125;0;;-999999;13;26945;0;1;1216;28161;1;1;1;1;ProcFischi1;ListBlockFischi;22;1;2;0;0;3;Pr4_B;125;3;ug;3;2;29;1;22;3;1;TrialProc;2798;681;Pr4_B;79;1331;1253;ListFischi1;0;;2;203;208268;18;133;1887;210155;367;1;1359;1;1852;518;992;1;1
TMS_Ibrahim;44;4;"<?xml version=""1.0""?>\n<Clock xmlns:dt=""urn:schemas-microsoft-com:datatypes""><Description dt:dt=""string"">E-Prime Primary Realtime Clock</Description><StartTime><Timestamp dt:dt=""int"">0</Timestamp><DateUtc dt:dt=""string"">2022-11-07T15:07:41Z</DateUtc></StartTime><FrequencyChanges><FrequencyChange><Frequency dt:dt=""r8"">3312890</Frequency><Timestamp dt:dt=""r8"">24324157916</Timestamp><Current dt:dt=""r8"">0</Current><DateUtc dt:dt=""string"">2022-11-07T15:07:41Z</DateUtc></FrequencyChange></FrequencyChanges></Clock>\n";TMS_Ibrahim-44-4;75.028;1.0.0.561;1;;-1444976701;2.0.10.242;2.0.10.242;11/07/2022;07/11/2022 15:07;16:07:41;2.0.10.147;0;;-999999;20;24019;0;1;1230;25249;1;1;1;2;1;0;1;BlockProcFischi;BlockList;1;125;0;;-999999;13;26945;0;1;1216;28161;1;1;1;1;ProcFischi1;ListBlockFischi;23;1;1;0;0;3;Po5_B;150;2;op;3;2;46;1;23;2;0;TrialProc;1551;986;Po5_B;147;1331;1479;ListFischi1;0;;2;203;217425;18;13;1354;218779;474;1;1354;1;2360;558;880;1;1
TMS_Ibrahim;44;4;"<?xml version=""1.0""?>\n<Clock xmlns:dt=""urn:schemas-microsoft-com:datatypes""><Description dt:dt=""string"">E-Prime Primary Realtime Clock</Description><StartTime><Timestamp dt:dt=""int"">0</Timestamp><DateUtc dt:dt=""string"">2022-11-07T15:07:41Z</DateUtc></StartTime><FrequencyChanges><FrequencyChange><Frequency dt:dt=""r8"">3312890</Frequency><Timestamp dt:dt=""r8"">24324157916</Timestamp><Current dt:dt=""r8"">0</Current><DateUtc dt:dt=""string"">2022-11-07T15:07:41Z</DateUtc></FrequencyChange></FrequencyChanges></Clock>\n";TMS_Ibrahim-44-4;75.028;1.0.0.561;1;;-1444976701;2.0.10.242;2.0.10.242;11/07/2022;07/11/2022 15:07;16:07:41;2.0.10.147;0;;-999999;20;24019;0;1;1230;25249;1;1;1;2;1;0;1;BlockProcFischi;BlockList;1;125;0;;-999999;13;26945;0;1;1216;28161;1;1;1;1;ProcFischi1;ListBlockFischi;24;1;2;0;0;5;Pr2_B;150;1;op;5;2;1;1;24;1;0;TrialProc;1134;719;Pr2_B;8;1260;1253;ListFischi1;0;;2;203;226035;18;15;1287;227322;407;1;1287;1;792;310;880;1;1
TMS_Ibrahim;44;4;"<?xml version=""1.0""?>\n<Clock xmlns:dt=""urn:schemas-microsoft-com:datatypes""><Description dt:dt=""string"">E-Prime Primary Realtime Clock</Description><StartTime><Timestamp dt:dt=""int"">0</Timestamp><DateUtc dt:dt=""string"">2022-11-07T15:07:41Z</DateUtc></StartTime><FrequencyChanges><FrequencyChange><Frequency dt:dt=""r8"">3312890</Frequency><Timestamp dt:dt=""r8"">24324157916</Timestamp><Current dt:dt=""r8"">0</Current><DateUtc dt:dt=""string"">2022-11-07T15:07:41Z</DateUtc></FrequencyChange></FrequencyChanges></Clock>\n";TMS_Ibrahim-44-4;75.028;1.0.0.561;1;;-1444976701;2.0.10.242;2.0.10.242;11/07/2022;07/11/2022 15:07;16:07:41;2.0.10.147;0;;-999999;20;24019;0;1;1230;25249;1;1;1;2;1;0;1;BlockProcFischi;BlockList;1;125;0;;-999999;13;26945;0;1;1216;28161;1;1;1;1;ProcFischi1;ListBlockFischi;25;1;2;0;0;3;Pr2_B;100;3;ug;3;2;22;1;25;3;1;TrialProc;2035;712;Pr2_B;426;1672;1245;ListFischi1;0;;2;201;233253;10;13;1701;234954;501;1;1701;1;1074;438;1200;1;1
TMS_Ibrahim;44;4;"<?xml version=""1.0""?>\n<Clock xmlns:dt=""urn:schemas-microsoft-com:datatypes""><Description dt:dt=""string"">E-Prime Primary Realtime Clock</Description><StartTime><Timestamp dt:dt=""int"">0</Timestamp><DateUtc dt:dt=""string"">2022-11-07T15:07:41Z</DateUtc></StartTime><FrequencyChanges><FrequencyChange><Frequency dt:dt=""r8"">3312890</Frequency><Timestamp dt:dt=""r8"">24324157916</Timestamp><Current dt:dt=""r8"">0</Current><DateUtc dt:dt=""string"">2022-11-07T15:07:41Z</DateUtc></FrequencyChange></FrequencyChanges></Clock>\n";TMS_Ibrahim-44-4;75.028;1.0.0.561;1;;-1444976701;2.0.10.242;2.0.10.242;11/07/2022;07/11/2022 15:07;16:07:41;2.0.10.147;0;;-999999;20;24019;0;1;1230;25249;1;1;1;2;1;0;1;BlockProcFischi;BlockList;1;125;0;;-999999;13;26945;0;1;1216;28161;1;1;1;1;ProcFischi1;ListBlockFischi;26;1;2;0;0;5;Pr2_B;125;1;op;5;2;11;1;26;1;0;TrialProc;2694;709;Pr2_B;54;1295;1241;ListFischi1;0;;2;203;240679;8;15;1331;242010;339;1;1331;1;663;567;992;1;1
TMS_Ibrahim;44;4;"<?xml version=""1.0""?>\n<Clock xmlns:dt=""urn:schemas-microsoft-com:datatypes""><Description dt:dt=""string"">E-Prime Primary Realtime Clock</Description><StartTime><Timestamp dt:dt=""int"">0</Timestamp><DateUtc dt:dt=""string"">2022-11-07T15:07:41Z</DateUtc></StartTime><FrequencyChanges><FrequencyChange><Frequency dt:dt=""r8"">3312890</Frequency><Timestamp dt:dt=""r8"">24324157916</Timestamp><Current dt:dt=""r8"">0</Current><DateUtc dt:dt=""string"">2022-11-07T15:07:41Z</DateUtc></FrequencyChange></FrequencyChanges></Clock>\n";TMS_Ibrahim-44-4;75.028;1.0.0.561;1;;-1444976701;2.0.10.242;2.0.10.242;11/07/2022;07/11/2022 15:07;16:07:41;2.0.10.147;0;;-999999;20;24019;0;1;1230;25249;1;1;1;2;1;0;1;BlockProcFischi;BlockList;1;125;0;;-999999;13;26945;0;1;1216;28161;1;1;1;1;ProcFischi1;ListBlockFischi;27;1;1;0;0;5;Po4_B;150;4;ug;5;2;56;1;27;4;1;TrialProc;2719;1342;Po4_B;261;1454;1715;ListFischi1;0;;2;203;248804;13;15;1477;250281;277;1;1477;1;783;470;1200;1;1
TMS_Ibrahim;44;4;"<?xml version=""1.0""?>\n<Clock xmlns:dt=""urn:schemas-microsoft-com:datatypes""><Description dt:dt=""string"">E-Prime Primary Realtime Clock</Description><StartTime><Timestamp dt:dt=""int"">0</Timestamp><DateUtc dt:dt=""string"">2022-11-07T15:07:41Z</DateUtc></StartTime><FrequencyChanges><FrequencyChange><Frequency dt:dt=""r8"">3312890</Frequency><Timestamp dt:dt=""r8"">24324157916</Timestamp><Current dt:dt=""r8"">0</Current><DateUtc dt:dt=""string"">2022-11-07T15:07:41Z</DateUtc></FrequencyChange></FrequencyChanges></Clock>\n";TMS_Ibrahim-44-4;75.028;1.0.0.561;1;;-1444976701;2.0.10.242;2.0.10.242;11/07/2022;07/11/2022 15:07;16:07:41;2.0.10.147;0;;-999999;20;24019;0;1;1230;25249;1;1;1;2;1;0;1;BlockProcFischi;BlockList;1;125;0;;-999999;13;26945;0;1;1216;28161;1;1;1;1;ProcFischi1;ListBlockFischi;28;1;1;0;0;3;Po4_B;150;2;op;3;2;45;1;28;2;0;TrialProc;1683;1341;Po4_B;223;1490;1714;ListFischi1;0;;2;203;257414;13;13;1523;258937;307;1;1523;1;452;374;1216;1;1
TMS_Ibrahim;44;4;"<?xml version=""1.0""?>\n<Clock xmlns:dt=""urn:schemas-microsoft-com:datatypes""><Description dt:dt=""string"">E-Prime Primary Realtime Clock</Description><StartTime><Timestamp dt:dt=""int"">0</Timestamp><DateUtc dt:dt=""string"">2022-11-07T15:07:41Z</DateUtc></StartTime><FrequencyChanges><FrequencyChange><Frequency dt:dt=""r8"">3312890</Frequency><Timestamp dt:dt=""r8"">24324157916</Timestamp><Current dt:dt=""r8"">0</Current><DateUtc dt:dt=""string"">2022-11-07T15:07:41Z</DateUtc></FrequencyChange></FrequencyChanges></Clock>\n";TMS_Ibrahim-44-4;75.028;1.0.0.561;1;;-1444976701;2.0.10.242;2.0.10.242;11/07/2022;07/11/2022 15:07;16:07:41;2.0.10.147;0;;-999999;20;24019;0;1;1230;25249;1;1;1;2;1;0;1;BlockProcFischi;BlockList;1;125;0;;-999999;13;26945;0;1;1216;28161;1;1;1;1;ProcFischi1;ListBlockFischi;29;1;1;0;1;5;Po5_B;150;4;ug;5;2;57;1;29;4;1;TrialProc;2100;988;Po5_B;61;1408;1469;ListFischi1;0;;2;203;265429;8;15;1428;266857;490;1;1428;1;732;260;938;1;1
TMS_Ibrahim;44;4;"<?xml version=""1.0""?>\n<Clock xmlns:dt=""urn:schemas-microsoft-com:datatypes""><Description dt:dt=""string"">E-Prime Primary Realtime Clock</Description><StartTime><Timestamp dt:dt=""int"">0</Timestamp><DateUtc dt:dt=""string"">2022-11-07T15:07:41Z</DateUtc></StartTime><FrequencyChanges><FrequencyChange><Frequency dt:dt=""r8"">3312890</Frequency><Timestamp dt:dt=""r8"">24324157916</Timestamp><Current dt:dt=""r8"">0</Current><DateUtc dt:dt=""string"">2022-11-07T15:07:41Z</DateUtc></FrequencyChange></FrequencyChanges></Clock>\n";TMS_Ibrahim-44-4;75.028;1.0.0.561;1;;-1444976701;2.0.10.242;2.0.10.242;11/07/2022;07/11/2022 15:07;16:07:41;2.0.10.147;0;;-999999;20;24019;0;1;1230;25249;1;1;1;2;1;0;1;BlockProcFischi;BlockList;1;125;0;;-999999;13;26945;0;1;1216;28161;1;1;1;1;ProcFischi1;ListBlockFischi;30;1;1;0;1;3;Po8_B;150;2;op;3;2;42;1;30;2;0;TrialProc;1521;1245;Po8_B;54;1524;1578;ListFischi1;0;;2;203;273783;11;13;1553;275336;403;1;1553;1;748;283;1150;1;1
TMS_Ibrahim;44;4;"<?xml version=""1.0""?>\n<Clock xmlns:dt=""urn:schemas-microsoft-com:datatypes""><Description dt:dt=""string"">E-Prime Primary Realtime Clock</Description><StartTime><Timestamp dt:dt=""int"">0</Timestamp><DateUtc dt:dt=""string"">2022-11-07T15:07:41Z</DateUtc></StartTime><FrequencyChanges><FrequencyChange><Frequency dt:dt=""r8"">3312890</Frequency><Timestamp dt:dt=""r8"">24324157916</Timestamp><Current dt:dt=""r8"">0</Current><DateUtc dt:dt=""string"">2022-11-07T15:07:41Z</DateUtc></FrequencyChange></FrequencyChanges></Clock>\n";TMS_Ibrahim-44-4;75.028;1.0.0.561;1;;-1444976701;2.0.10.242;2.0.10.242;11/07/2022;07/11/2022 15:07;16:07:41;2.0.10.147;0;;-999999;20;24019;0;1;1230;25249;1;1;1;2;1;0;1;BlockProcFischi;BlockList;1;125;0;;-999999;13;26945;0;1;1216;28161;1;1;1;1;ProcFischi1;ListBlockFischi;31;1;2;0;1;3;Pr4_B;100;3;ug;3;2;19;1;31;3;1;TrialProc;1536;672;Pr4_B;34;1278;1244;ListFischi1;0;;2;203;282447;10;13;1305;283752;505;1;1305;1;734;256;800;1;1
TMS_Ibrahim;44;4;"<?xml version=""1.0""?>\n<Clock xmlns:dt=""urn:schemas-microsoft-com:datatypes""><Description dt:dt=""string"">E-Prime Primary Realtime Clock</Description><StartTime><Timestamp dt:dt=""int"">0</Timestamp><DateUtc dt:dt=""string"">2022-11-07T15:07:41Z</DateUtc></StartTime><FrequencyChanges><FrequencyChange><Frequency dt:dt=""r8"">3312890</Frequency><Timestamp dt:dt=""r8"">24324157916</Timestamp><Current dt:dt=""r8"">0</Current><DateUtc dt:dt=""string"">2022-11-07T15:07:41Z</DateUtc></FrequencyChange></FrequencyChanges></Clock>\n";TMS_Ibrahim-44-4;75.028;1.0.0.561;1;;-1444976701;2.0.10.242;2.0.10.242;11/07/2022;07/11/2022 15:07;16:07:41;2.0.10.147;0;;-999999;20;24019;0;1;1230;25249;1;1;1;2;1;0;1;BlockProcFischi;BlockList;1;125;0;;-999999;13;26945;0;1;1216;28161;1;1;1;1;ProcFischi1;ListBlockFischi;32;1;1;0;0;5;Po8_B;125;4;ug;5;2;53;1;32;4;1;TrialProc;2691;1245;Po8_B;167;1412;1579;ListFischi1;0;;2;201;290310;11;155;2354;292664;402;1;1442;1;610;511;1040;1;1
TMS_Ibrahim;44;4;"<?xml version=""1.0""?>\n<Clock xmlns:dt=""urn:schemas-microsoft-com:datatypes""><Description dt:dt=""string"">E-Prime Primary Realtime Clock</Description><StartTime><Timestamp dt:dt=""int"">0</Timestamp><DateUtc dt:dt=""string"">2022-11-07T15:07:41Z</DateUtc></StartTime><FrequencyChanges><FrequencyChange><Frequency dt:dt=""r8"">3312890</Frequency><Timestamp dt:dt=""r8"">24324157916</Timestamp><Current dt:dt=""r8"">0</Current><DateUtc dt:dt=""string"">2022-11-07T15:07:41Z</DateUtc></FrequencyChange></FrequencyChanges></Clock>\n";TMS_Ibrahim-44-4;75.028;1.0.0.561;1;;-1444976701;2.0.10.242;2.0.10.242;11/07/2022;07/11/2022 15:07;16:07:41;2.0.10.147;0;;-999999;20;24019;0;1;1230;25249;1;1;1;2;1;0;1;BlockProcFischi;BlockList;1;125;0;;-999999;13;26945;0;1;1216;28161;1;1;1;1;ProcFischi1;ListBlockFischi;33;1;2;0;0;3;Pr2_B;75;3;ug;3;2;27;1;33;3;1;TrialProc;2858;712;Pr2_B;49;1293;1244;ListFischi1;0;;2;203;297775;9;13;1320;299095;457;1;1320;1;767;594;863;1;1
TMS_Ibrahim;44;4;"<?xml version=""1.0""?>\n<Clock xmlns:dt=""urn:schemas-microsoft-com:datatypes""><Description dt:dt=""string"">E-Prime Primary Realtime Clock</Description><StartTime><Timestamp dt:dt=""int"">0</Timestamp><DateUtc dt:dt=""string"">2022-11-07T15:07:41Z</DateUtc></StartTime><FrequencyChanges><FrequencyChange><Frequency dt:dt=""r8"">3312890</Frequency><Timestamp dt:dt=""r8"">24324157916</Timestamp><Current dt:dt=""r8"">0</Current><DateUtc dt:dt=""string"">2022-11-07T15:07:41Z</DateUtc></FrequencyChange></FrequencyChanges></Clock>\n";TMS_Ibrahim-44-4;75.028;1.0.0.561;1;;-1444976701;2.0.10.242;2.0.10.242;11/07/2022;07/11/2022 15:07;16:07:41;2.0.10.147;0;;-999999;20;24019;0;1;1230;25249;1;1;1;2;1;0;1;BlockProcFischi;BlockList;1;125;0;;-999999;13;26945;0;1;1216;28161;1;1;1;1;ProcFischi1;ListBlockFischi;34;1;2;0;0;5;Pr4_B;100;1;op;5;2;8;1;34;1;0;TrialProc;3023;677;Pr4_B;156;1406;1250;ListFischi1;0;;2;203;305646;15;155;2409;308055;377;1;1433;1;1047;547;1056;1;1
TMS_Ibrahim;44;4;"<?xml version=""1.0""?>\n<Clock xmlns:dt=""urn:schemas-microsoft-com:datatypes""><Description dt:dt=""string"">E-Prime Primary Realtime Clock</Description><StartTime><Timestamp dt:dt=""int"">0</Timestamp><DateUtc dt:dt=""string"">2022-11-07T15:07:41Z</DateUtc></StartTime><FrequencyChanges><FrequencyChange><Frequency dt:dt=""r8"">3312890</Frequency><Timestamp dt:dt=""r8"">24324157916</Timestamp><Current dt:dt=""r8"">0</Current><DateUtc dt:dt=""string"">2022-11-07T15:07:41Z</DateUtc></FrequencyChange></FrequencyChanges></Clock>\n";TMS_Ibrahim-44-4;75.028;1.0.0.561;1;;-1444976701;2.0.10.242;2.0.10.242;11/07/2022;07/11/2022 15:07;16:07:41;2.0.10.147;0;;-999999;20;24019;0;1;1230;25249;1;1;1;2;1;0;1;BlockProcFischi;BlockList;1;125;0;;-999999;13;26945;0;1;1216;28161;1;1;1;1;ProcFischi1;ListBlockFischi;35;1;1;1;1;5;Pomod_B;125;4;ug;5;2;63;1;35;4;1;TrialProc;2632;1316;Pomod_B;248;1923;1675;ListFischi1;0;;2;201;313351;14;15;1952;315303;288;1;1952;1;426;213;1664;1;1
TMS_Ibrahim;44;4;"<?xml version=""1.0""?>\n<Clock xmlns:dt=""urn:schemas-microsoft-com:datatypes""><Description dt:dt=""string"">E-Prime Primary Realtime Clock</Description><StartTime><Timestamp dt:dt=""int"">0</Timestamp><DateUtc dt:dt=""string"">2022-11-07T15:07:41Z</DateUtc></StartTime><FrequencyChanges><FrequencyChange><Frequency dt:dt=""r8"">3312890</Frequency><Timestamp dt:dt=""r8"">24324157916</Timestamp><Current dt:dt=""r8"">0</Current><DateUtc dt:dt=""string"">2022-11-07T15:07:41Z</DateUtc></FrequencyChange></FrequencyChanges></Clock>\n";TMS_Ibrahim-44-4;75.028;1.0.0.561;1;;-1444976701;2.0.10.242;2.0.10.242;11/07/2022;07/11/2022 15:07;16:07:41;2.0.10.147;0;;-999999;20;24019;0;1;1230;25249;1;1;1;2;1;0;1;BlockProcFischi;BlockList;1;125;0;;-999999;13;26945;0;1;1216;28161;1;1;1;1;ProcFischi1;ListBlockFischi;36;1;2;0;1;5;Pr5_B;100;1;op;5;2;4;1;36;1;0;TrialProc;2621;670;Pr5_B;352;1622;1270;ListFischi1;0;;2;203;321620;8;15;1651;323271;419;1;1651;1;1255;203;1232;1;1
