ExperimentName;Subject;Session;Clock.Information;DataFile.Basename;Display.RefreshRate;ExperimentVersion;Group;Name;RandomSeed;RuntimeVersion;RuntimeVersionExpected;SessionDate;SessionStartDateTimeUtc;SessionTime;StudioVersion;SyncEprimeKinB1.ACC;SyncEprimeKinB1.CRESP;SyncEprimeKinB1.DurationError;SyncEprimeKinB1.OnsetDelay;SyncEprimeKinB1.OnsetTime;SyncEprimeKinB1.OnsetToOnsetTime;SyncEprimeKinB1.RESP;SyncEprimeKinB1.RT;SyncEprimeKinB1.RTTime;Block;BlockINT_0Fischi_1Suoni;BlockList;BlockList.Cycle;BlockList.Sample;ContatoreSuoni;NumSuono;Procedure[Block];Running[Block];Suonilist;SuonoFinSoglia;SyncEprimeKinFischi1.ACC;SyncEprimeKinFischi1.CRESP;SyncEprimeKinFischi1.DurationError;SyncEprimeKinFischi1.OnsetDelay;SyncEprimeKinFischi1.OnsetTime;SyncEprimeKinFischi1.OnsetToOnsetTime;SyncEprimeKinFischi1.RESP;SyncEprimeKinFischi1.RT;SyncEprimeKinFischi1.RTTime;Trial;ListBlockFischi;ListBlockFischi.Cycle;ListBlockFischi.Sample;Procedure[Trial];Running[Trial];SubTrial;AccSogg1;Avatar_Giu1_Su2;CatchTrial_CORR;ContatoreFinestraSoglia;CorrectResponse;File_Name;FinestraSoglia;IdcondEEG;Istruzione;KeySoggetto1;KeySoggetto2;ListFischi1;ListFischi1.Cycle;ListFischi1.Sample;NumeroSuono;OP_UG;Procedure[SubTrial];Resoconto.RT;RTChange;RTimage;RTNetto;RTSubj;RTTouch;Running[SubTrial];StartGo.ACC;StartGo.CRESP;StartGo.DurationError;StartGo.OnsetDelay;StartGo.OnsetTime;StartGo.OnsetToOnsetTime;StartGo.RESP;StartGo.RT;StartGo.RTTime;StartSoggetto1;StartSoggetto2;StopSoggetto1;StopSoggetto2;StopTrial.RT;tempo;TMSoggetto1;ValiditaTrial;Vincitore
TMS_Ibrahim;45;1;"<?xml version=""1.0""?>\n<Clock xmlns:dt=""urn:schemas-microsoft-com:datatypes""><Description dt:dt=""string"">E-Prime Primary Realtime Clock</Description><StartTime><Timestamp dt:dt=""int"">0</Timestamp><DateUtc dt:dt=""string"">2022-11-08T16:17:02Z</DateUtc></StartTime><FrequencyChanges><FrequencyChange><Frequency dt:dt=""r8"">3312871</Frequency><Timestamp dt:dt=""r8"">93160164484</Timestamp><Current dt:dt=""r8"">0</Current><DateUtc dt:dt=""string"">2022-11-08T16:17:02Z</DateUtc></FrequencyChange></FrequencyChanges></Clock>\n";TMS_Ibrahim-45-1;75.030;1.0.0.561;1;;-1328446689;2.0.10.242;2.0.10.242;11/08/2022;08/11/2022 16:17;17:17:02;2.0.10.147;0;;-999999;21;28370;0;1;1073;29443;1;1;1;2;1;0;1;BlockProcFischi;BlockList;1;125;0;;-999999;13;30930;0;1;980;31910;1;1;1;1;ProcFischi1;ListBlockFischi;1;1;2;0;0;3;Pr4_B;250;3;ug;3;2;19;1;1;3;1;TrialProc;1383;701;Pr4_B;249;1550;1301;ListFischi1;0;;5;210;35273;17;13;1575;36848;391;1;1575;1;1042;377;1184;1;1
TMS_Ibrahim;45;1;"<?xml version=""1.0""?>\n<Clock xmlns:dt=""urn:schemas-microsoft-com:datatypes""><Description dt:dt=""string"">E-Prime Primary Realtime Clock</Description><StartTime><Timestamp dt:dt=""int"">0</Timestamp><DateUtc dt:dt=""string"">2022-11-08T16:17:02Z</DateUtc></StartTime><FrequencyChanges><FrequencyChange><Frequency dt:dt=""r8"">3312871</Frequency><Timestamp dt:dt=""r8"">93160164484</Timestamp><Current dt:dt=""r8"">0</Current><DateUtc dt:dt=""string"">2022-11-08T16:17:02Z</DateUtc></FrequencyChange></FrequencyChanges></Clock>\n";TMS_Ibrahim-45-1;75.030;1.0.0.561;1;;-1328446689;2.0.10.242;2.0.10.242;11/08/2022;08/11/2022 16:17;17:17:02;2.0.10.147;0;;-999999;21;28370;0;1;1073;29443;1;1;1;2;1;0;1;BlockProcFischi;BlockList;1;125;0;;-999999;13;30930;0;1;980;31910;1;1;1;1;ProcFischi1;ListBlockFischi;2;1;1;0;0;5;Po2_B;250;4;ug;5;2;54;1;2;4;1;TrialProc;1387;1584;Po2_B;115;1925;1810;ListFischi1;0;;1;204;42792;15;15;1944;44736;488;1;1944;1;905;387;1456;1;1
TMS_Ibrahim;45;1;"<?xml version=""1.0""?>\n<Clock xmlns:dt=""urn:schemas-microsoft-com:datatypes""><Description dt:dt=""string"">E-Prime Primary Realtime Clock</Description><StartTime><Timestamp dt:dt=""int"">0</Timestamp><DateUtc dt:dt=""string"">2022-11-08T16:17:02Z</DateUtc></StartTime><FrequencyChanges><FrequencyChange><Frequency dt:dt=""r8"">3312871</Frequency><Timestamp dt:dt=""r8"">93160164484</Timestamp><Current dt:dt=""r8"">0</Current><DateUtc dt:dt=""string"">2022-11-08T16:17:02Z</DateUtc></FrequencyChange></FrequencyChanges></Clock>\n";TMS_Ibrahim-45-1;75.030;1.0.0.561;1;;-1328446689;2.0.10.242;2.0.10.242;11/08/2022;08/11/2022 16:17;17:17:02;2.0.10.147;0;;-999999;21;28370;0;1;1073;29443;1;1;1;2;1;0;1;BlockProcFischi;BlockList;1;125;0;;-999999;13;30930;0;1;980;31910;1;1;1;1;ProcFischi1;ListBlockFischi;3;1;1;0;0;5;Po4_B;225;4;ug;5;2;61;1;3;4;1;TrialProc;2182;1343;Po4_B;33;1749;1717;ListFischi1;0;;2;203;51068;15;15;1780;52848;260;1;1780;1;712;413;1520;1;1
TMS_Ibrahim;45;1;"<?xml version=""1.0""?>\n<Clock xmlns:dt=""urn:schemas-microsoft-com:datatypes""><Description dt:dt=""string"">E-Prime Primary Realtime Clock</Description><StartTime><Timestamp dt:dt=""int"">0</Timestamp><DateUtc dt:dt=""string"">2022-11-08T16:17:02Z</DateUtc></StartTime><FrequencyChanges><FrequencyChange><Frequency dt:dt=""r8"">3312871</Frequency><Timestamp dt:dt=""r8"">93160164484</Timestamp><Current dt:dt=""r8"">0</Current><DateUtc dt:dt=""string"">2022-11-08T16:17:02Z</DateUtc></FrequencyChange></FrequencyChanges></Clock>\n";TMS_Ibrahim-45-1;75.030;1.0.0.561;1;;-1328446689;2.0.10.242;2.0.10.242;11/08/2022;08/11/2022 16:17;17:17:02;2.0.10.147;0;;-999999;21;28370;0;1;1073;29443;1;1;1;2;1;0;1;BlockProcFischi;BlockList;1;125;0;;-999999;13;30930;0;1;980;31910;1;1;1;1;ProcFischi1;ListBlockFischi;4;1;1;0;0;3;Po3_B;250;2;op;3;2;44;1;4;2;0;TrialProc;2078;1313;Po3_B;483;2064;1580;ListFischi1;0;;2;203;59175;12;13;2088;61263;297;1;2088;1;1171;403;1791;1;1
TMS_Ibrahim;45;1;"<?xml version=""1.0""?>\n<Clock xmlns:dt=""urn:schemas-microsoft-com:datatypes""><Description dt:dt=""string"">E-Prime Primary Realtime Clock</Description><StartTime><Timestamp dt:dt=""int"">0</Timestamp><DateUtc dt:dt=""string"">2022-11-08T16:17:02Z</DateUtc></StartTime><FrequencyChanges><FrequencyChange><Frequency dt:dt=""r8"">3312871</Frequency><Timestamp dt:dt=""r8"">93160164484</Timestamp><Current dt:dt=""r8"">0</Current><DateUtc dt:dt=""string"">2022-11-08T16:17:02Z</DateUtc></FrequencyChange></FrequencyChanges></Clock>\n";TMS_Ibrahim-45-1;75.030;1.0.0.561;1;;-1328446689;2.0.10.242;2.0.10.242;11/08/2022;08/11/2022 16:17;17:17:02;2.0.10.147;0;;-999999;21;28370;0;1;1073;29443;1;1;1;2;1;0;1;BlockProcFischi;BlockList;1;125;0;;-999999;13;30930;0;1;980;31910;1;1;1;1;ProcFischi1;ListBlockFischi;5;1;2;0;0;5;Pr4_B;250;1;op;5;2;13;1;5;1;0;TrialProc;2474;675;Pr4_B;250;1498;1248;ListFischi1;0;;3;201;66769;15;15;1518;68287;174;1;1518;1;1048;236;1344;1;1
TMS_Ibrahim;45;1;"<?xml version=""1.0""?>\n<Clock xmlns:dt=""urn:schemas-microsoft-com:datatypes""><Description dt:dt=""string"">E-Prime Primary Realtime Clock</Description><StartTime><Timestamp dt:dt=""int"">0</Timestamp><DateUtc dt:dt=""string"">2022-11-08T16:17:02Z</DateUtc></StartTime><FrequencyChanges><FrequencyChange><Frequency dt:dt=""r8"">3312871</Frequency><Timestamp dt:dt=""r8"">93160164484</Timestamp><Current dt:dt=""r8"">0</Current><DateUtc dt:dt=""string"">2022-11-08T16:17:02Z</DateUtc></FrequencyChange></FrequencyChanges></Clock>\n";TMS_Ibrahim-45-1;75.030;1.0.0.561;1;;-1328446689;2.0.10.242;2.0.10.242;11/08/2022;08/11/2022 16:17;17:17:02;2.0.10.147;0;;-999999;21;28370;0;1;1073;29443;1;1;1;2;1;0;1;BlockProcFischi;BlockList;1;125;0;;-999999;13;30930;0;1;980;31910;1;1;1;1;ProcFischi1;ListBlockFischi;6;1;1;0;0;5;Po3_B;200;4;ug;5;2;60;1;6;4;1;TrialProc;2051;1310;Po3_B;320;1896;1577;ListFischi1;0;;2;203;74585;9;155;2774;77359;294;1;1926;1;734;507;1632;1;1
TMS_Ibrahim;45;1;"<?xml version=""1.0""?>\n<Clock xmlns:dt=""urn:schemas-microsoft-com:datatypes""><Description dt:dt=""string"">E-Prime Primary Realtime Clock</Description><StartTime><Timestamp dt:dt=""int"">0</Timestamp><DateUtc dt:dt=""string"">2022-11-08T16:17:02Z</DateUtc></StartTime><FrequencyChanges><FrequencyChange><Frequency dt:dt=""r8"">3312871</Frequency><Timestamp dt:dt=""r8"">93160164484</Timestamp><Current dt:dt=""r8"">0</Current><DateUtc dt:dt=""string"">2022-11-08T16:17:02Z</DateUtc></FrequencyChange></FrequencyChanges></Clock>\n";TMS_Ibrahim-45-1;75.030;1.0.0.561;1;;-1328446689;2.0.10.242;2.0.10.242;11/08/2022;08/11/2022 16:17;17:17:02;2.0.10.147;0;;-999999;21;28370;0;1;1073;29443;1;1;1;2;1;0;1;BlockProcFischi;BlockList;1;125;0;;-999999;13;30930;0;1;980;31910;1;1;1;1;ProcFischi1;ListBlockFischi;7;1;2;0;0;3;Pr8_B;250;3;ug;3;2;21;1;7;3;1;TrialProc;2553;707;Pr8_B;212;1945;1733;ListFischi1;0;;2;203;82038;7;13;1977;84015;377;1;1977;1;1031;362;1600;1;1
TMS_Ibrahim;45;1;"<?xml version=""1.0""?>\n<Clock xmlns:dt=""urn:schemas-microsoft-com:datatypes""><Description dt:dt=""string"">E-Prime Primary Realtime Clock</Description><StartTime><Timestamp dt:dt=""int"">0</Timestamp><DateUtc dt:dt=""string"">2022-11-08T16:17:02Z</DateUtc></StartTime><FrequencyChanges><FrequencyChange><Frequency dt:dt=""r8"">3312871</Frequency><Timestamp dt:dt=""r8"">93160164484</Timestamp><Current dt:dt=""r8"">0</Current><DateUtc dt:dt=""string"">2022-11-08T16:17:02Z</DateUtc></FrequencyChange></FrequencyChanges></Clock>\n";TMS_Ibrahim-45-1;75.030;1.0.0.561;1;;-1328446689;2.0.10.242;2.0.10.242;11/08/2022;08/11/2022 16:17;17:17:02;2.0.10.147;0;;-999999;21;28370;0;1;1073;29443;1;1;1;2;1;0;1;BlockProcFischi;BlockList;1;125;0;;-999999;13;30930;0;1;980;31910;1;1;1;1;ProcFischi1;ListBlockFischi;8;1;1;0;1;5;Po4_B;200;4;ug;5;2;51;1;8;4;1;TrialProc;1484;1336;Po4_B;237;1474;1710;ListFischi1;0;;2;203;90326;9;15;1496;91822;264;1;1496;1;1076;387;1232;1;1
TMS_Ibrahim;45;1;"<?xml version=""1.0""?>\n<Clock xmlns:dt=""urn:schemas-microsoft-com:datatypes""><Description dt:dt=""string"">E-Prime Primary Realtime Clock</Description><StartTime><Timestamp dt:dt=""int"">0</Timestamp><DateUtc dt:dt=""string"">2022-11-08T16:17:02Z</DateUtc></StartTime><FrequencyChanges><FrequencyChange><Frequency dt:dt=""r8"">3312871</Frequency><Timestamp dt:dt=""r8"">93160164484</Timestamp><Current dt:dt=""r8"">0</Current><DateUtc dt:dt=""string"">2022-11-08T16:17:02Z</DateUtc></FrequencyChange></FrequencyChanges></Clock>\n";TMS_Ibrahim-45-1;75.030;1.0.0.561;1;;-1328446689;2.0.10.242;2.0.10.242;11/08/2022;08/11/2022 16:17;17:17:02;2.0.10.147;0;;-999999;21;28370;0;1;1073;29443;1;1;1;2;1;0;1;BlockProcFischi;BlockList;1;125;0;;-999999;13;30930;0;1;980;31910;1;1;1;1;ProcFischi1;ListBlockFischi;9;1;2;0;0;5;Pr2_B;250;1;op;5;2;11;1;9;1;0;TrialProc;1926;712;Pr2_B;148;1394;1247;ListFischi1;0;;2;203;98267;11;15;1427;99694;291;1;1427;1;919;489;1136;1;1
TMS_Ibrahim;45;1;"<?xml version=""1.0""?>\n<Clock xmlns:dt=""urn:schemas-microsoft-com:datatypes""><Description dt:dt=""string"">E-Prime Primary Realtime Clock</Description><StartTime><Timestamp dt:dt=""int"">0</Timestamp><DateUtc dt:dt=""string"">2022-11-08T16:17:02Z</DateUtc></StartTime><FrequencyChanges><FrequencyChange><Frequency dt:dt=""r8"">3312871</Frequency><Timestamp dt:dt=""r8"">93160164484</Timestamp><Current dt:dt=""r8"">0</Current><DateUtc dt:dt=""string"">2022-11-08T16:17:02Z</DateUtc></FrequencyChange></FrequencyChanges></Clock>\n";TMS_Ibrahim-45-1;75.030;1.0.0.561;1;;-1328446689;2.0.10.242;2.0.10.242;11/08/2022;08/11/2022 16:17;17:17:02;2.0.10.147;0;;-999999;21;28370;0;1;1073;29443;1;1;1;2;1;0;1;BlockProcFischi;BlockList;1;125;0;;-999999;13;30930;0;1;980;31910;1;1;1;1;ProcFischi1;ListBlockFischi;10;1;2;0;0;3;Pr3_B;225;3;ug;3;2;18;1;10;3;1;TrialProc;3089;713;Pr3_B;217;1496;1713;ListFischi1;0;;2;203;105956;13;13;1530;107486;138;1;1530;1;831;415;1392;1;1
TMS_Ibrahim;45;1;"<?xml version=""1.0""?>\n<Clock xmlns:dt=""urn:schemas-microsoft-com:datatypes""><Description dt:dt=""string"">E-Prime Primary Realtime Clock</Description><StartTime><Timestamp dt:dt=""int"">0</Timestamp><DateUtc dt:dt=""string"">2022-11-08T16:17:02Z</DateUtc></StartTime><FrequencyChanges><FrequencyChange><Frequency dt:dt=""r8"">3312871</Frequency><Timestamp dt:dt=""r8"">93160164484</Timestamp><Current dt:dt=""r8"">0</Current><DateUtc dt:dt=""string"">2022-11-08T16:17:02Z</DateUtc></FrequencyChange></FrequencyChanges></Clock>\n";TMS_Ibrahim-45-1;75.030;1.0.0.561;1;;-1328446689;2.0.10.242;2.0.10.242;11/08/2022;08/11/2022 16:17;17:17:02;2.0.10.147;0;;-999999;21;28370;0;1;1073;29443;1;1;1;2;1;0;1;BlockProcFischi;BlockList;1;125;0;;-999999;13;30930;0;1;980;31910;1;1;1;1;ProcFischi1;ListBlockFischi;11;1;2;0;0;3;Pr5_B;225;3;ug;3;2;20;1;11;3;1;TrialProc;1941;676;Pr5_B;151;1426;1276;ListFischi1;0;;2;203;114390;15;13;1448;115838;280;1;1448;1;1303;256;1168;1;1
TMS_Ibrahim;45;1;"<?xml version=""1.0""?>\n<Clock xmlns:dt=""urn:schemas-microsoft-com:datatypes""><Description dt:dt=""string"">E-Prime Primary Realtime Clock</Description><StartTime><Timestamp dt:dt=""int"">0</Timestamp><DateUtc dt:dt=""string"">2022-11-08T16:17:02Z</DateUtc></StartTime><FrequencyChanges><FrequencyChange><Frequency dt:dt=""r8"">3312871</Frequency><Timestamp dt:dt=""r8"">93160164484</Timestamp><Current dt:dt=""r8"">0</Current><DateUtc dt:dt=""string"">2022-11-08T16:17:02Z</DateUtc></FrequencyChange></FrequencyChanges></Clock>\n";TMS_Ibrahim-45-1;75.030;1.0.0.561;1;;-1328446689;2.0.10.242;2.0.10.242;11/08/2022;08/11/2022 16:17;17:17:02;2.0.10.147;0;;-999999;21;28370;0;1;1073;29443;1;1;1;2;1;0;1;BlockProcFischi;BlockList;1;125;0;;-999999;13;30930;0;1;980;31910;1;1;1;1;ProcFischi1;ListBlockFischi;12;1;2;0;0;3;Pr4_B;200;3;ug;3;2;29;1;12;3;1;TrialProc;2930;671;Pr4_B;165;1408;1244;ListFischi1;0;;2;203;122366;10;13;1439;123805;223;1;1439;1;838;409;1216;1;1
TMS_Ibrahim;45;1;"<?xml version=""1.0""?>\n<Clock xmlns:dt=""urn:schemas-microsoft-com:datatypes""><Description dt:dt=""string"">E-Prime Primary Realtime Clock</Description><StartTime><Timestamp dt:dt=""int"">0</Timestamp><DateUtc dt:dt=""string"">2022-11-08T16:17:02Z</DateUtc></StartTime><FrequencyChanges><FrequencyChange><Frequency dt:dt=""r8"">3312871</Frequency><Timestamp dt:dt=""r8"">93160164484</Timestamp><Current dt:dt=""r8"">0</Current><DateUtc dt:dt=""string"">2022-11-08T16:17:02Z</DateUtc></FrequencyChange></FrequencyChanges></Clock>\n";TMS_Ibrahim-45-1;75.030;1.0.0.561;1;;-1328446689;2.0.10.242;2.0.10.242;11/08/2022;08/11/2022 16:17;17:17:02;2.0.10.147;0;;-999999;21;28370;0;1;1073;29443;1;1;1;2;1;0;1;BlockProcFischi;BlockList;1;125;0;;-999999;13;30930;0;1;980;31910;1;1;1;1;ProcFischi1;ListBlockFischi;13;1;2;0;0;3;Pr4_B;175;3;ug;3;2;24;1;13;3;1;TrialProc;2250;673;Pr4_B;168;1412;1245;ListFischi1;0;;2;203;130749;10;13;1440;132189;208;1;1440;1;817;558;1232;1;1
TMS_Ibrahim;45;1;"<?xml version=""1.0""?>\n<Clock xmlns:dt=""urn:schemas-microsoft-com:datatypes""><Description dt:dt=""string"">E-Prime Primary Realtime Clock</Description><StartTime><Timestamp dt:dt=""int"">0</Timestamp><DateUtc dt:dt=""string"">2022-11-08T16:17:02Z</DateUtc></StartTime><FrequencyChanges><FrequencyChange><Frequency dt:dt=""r8"">3312871</Frequency><Timestamp dt:dt=""r8"">93160164484</Timestamp><Current dt:dt=""r8"">0</Current><DateUtc dt:dt=""string"">2022-11-08T16:17:02Z</DateUtc></FrequencyChange></FrequencyChanges></Clock>\n";TMS_Ibrahim-45-1;75.030;1.0.0.561;1;;-1328446689;2.0.10.242;2.0.10.242;11/08/2022;08/11/2022 16:17;17:17:02;2.0.10.147;0;;-999999;21;28370;0;1;1073;29443;1;1;1;2;1;0;1;BlockProcFischi;BlockList;1;125;0;;-999999;13;30930;0;1;980;31910;1;1;1;1;ProcFischi1;ListBlockFischi;14;1;1;0;1;3;Po4_B;250;2;op;3;2;45;1;14;2;0;TrialProc;2583;1340;Po4_B;198;1515;1714;ListFischi1;0;;2;203;138784;12;133;1869;140653;205;1;1549;1;536;365;1344;1;1
TMS_Ibrahim;45;1;"<?xml version=""1.0""?>\n<Clock xmlns:dt=""urn:schemas-microsoft-com:datatypes""><Description dt:dt=""string"">E-Prime Primary Realtime Clock</Description><StartTime><Timestamp dt:dt=""int"">0</Timestamp><DateUtc dt:dt=""string"">2022-11-08T16:17:02Z</DateUtc></StartTime><FrequencyChanges><FrequencyChange><Frequency dt:dt=""r8"">3312871</Frequency><Timestamp dt:dt=""r8"">93160164484</Timestamp><Current dt:dt=""r8"">0</Current><DateUtc dt:dt=""string"">2022-11-08T16:17:02Z</DateUtc></FrequencyChange></FrequencyChanges></Clock>\n";TMS_Ibrahim-45-1;75.030;1.0.0.561;1;;-1328446689;2.0.10.242;2.0.10.242;11/08/2022;08/11/2022 16:17;17:17:02;2.0.10.147;0;;-999999;21;28370;0;1;1073;29443;1;1;1;2;1;0;1;BlockProcFischi;BlockList;1;125;0;;-999999;13;30930;0;1;980;31910;1;1;1;1;ProcFischi1;ListBlockFischi;15;1;2;1;0;5;Prmod_B;225;1;op;5;2;15;1;15;1;0;TrialProc;2224;1319;Prmod_B;189;1840;1652;ListFischi1;0;;2;203;147094;19;15;1863;148957;247;1;1863;1;715;210;1616;1;1
TMS_Ibrahim;45;1;"<?xml version=""1.0""?>\n<Clock xmlns:dt=""urn:schemas-microsoft-com:datatypes""><Description dt:dt=""string"">E-Prime Primary Realtime Clock</Description><StartTime><Timestamp dt:dt=""int"">0</Timestamp><DateUtc dt:dt=""string"">2022-11-08T16:17:02Z</DateUtc></StartTime><FrequencyChanges><FrequencyChange><Frequency dt:dt=""r8"">3312871</Frequency><Timestamp dt:dt=""r8"">93160164484</Timestamp><Current dt:dt=""r8"">0</Current><DateUtc dt:dt=""string"">2022-11-08T16:17:02Z</DateUtc></FrequencyChange></FrequencyChanges></Clock>\n";TMS_Ibrahim-45-1;75.030;1.0.0.561;1;;-1328446689;2.0.10.242;2.0.10.242;11/08/2022;08/11/2022 16:17;17:17:02;2.0.10.147;0;;-999999;21;28370;0;1;1073;29443;1;1;1;2;1;0;1;BlockProcFischi;BlockList;1;125;0;;-999999;13;30930;0;1;980;31910;1;1;1;1;ProcFischi1;ListBlockFischi;16;1;1;0;2;5;Po2_B;200;4;ug;5;2;49;1;16;4;1;TrialProc;1996;1583;Po2_B;139;1948;1810;ListFischi1;0;;2;203;155641;15;15;1971;157612;195;1;1971;1;995;466;1776;1;1
TMS_Ibrahim;45;1;"<?xml version=""1.0""?>\n<Clock xmlns:dt=""urn:schemas-microsoft-com:datatypes""><Description dt:dt=""string"">E-Prime Primary Realtime Clock</Description><StartTime><Timestamp dt:dt=""int"">0</Timestamp><DateUtc dt:dt=""string"">2022-11-08T16:17:02Z</DateUtc></StartTime><FrequencyChanges><FrequencyChange><Frequency dt:dt=""r8"">3312871</Frequency><Timestamp dt:dt=""r8"">93160164484</Timestamp><Current dt:dt=""r8"">0</Current><DateUtc dt:dt=""string"">2022-11-08T16:17:02Z</DateUtc></FrequencyChange></FrequencyChanges></Clock>\n";TMS_Ibrahim-45-1;75.030;1.0.0.561;1;;-1328446689;2.0.10.242;2.0.10.242;11/08/2022;08/11/2022 16:17;17:17:02;2.0.10.147;0;;-999999;21;28370;0;1;1073;29443;1;1;1;2;1;0;1;BlockProcFischi;BlockList;1;125;0;;-999999;13;30930;0;1;980;31910;1;1;1;1;ProcFischi1;ListBlockFischi;17;1;1;0;0;5;Po2_B;175;4;ug;5;2;59;1;17;4;1;TrialProc;1725;1584;Po2_B;28;1837;1810;ListFischi1;0;;2;203;164077;16;15;1871;165948;159;1;1871;1;1002;597;1712;1;1
TMS_Ibrahim;45;1;"<?xml version=""1.0""?>\n<Clock xmlns:dt=""urn:schemas-microsoft-com:datatypes""><Description dt:dt=""string"">E-Prime Primary Realtime Clock</Description><StartTime><Timestamp dt:dt=""int"">0</Timestamp><DateUtc dt:dt=""string"">2022-11-08T16:17:02Z</DateUtc></StartTime><FrequencyChanges><FrequencyChange><Frequency dt:dt=""r8"">3312871</Frequency><Timestamp dt:dt=""r8"">93160164484</Timestamp><Current dt:dt=""r8"">0</Current><DateUtc dt:dt=""string"">2022-11-08T16:17:02Z</DateUtc></FrequencyChange></FrequencyChanges></Clock>\n";TMS_Ibrahim-45-1;75.030;1.0.0.561;1;;-1328446689;2.0.10.242;2.0.10.242;11/08/2022;08/11/2022 16:17;17:17:02;2.0.10.147;0;;-999999;21;28370;0;1;1073;29443;1;1;1;2;1;0;1;BlockProcFischi;BlockList;1;125;0;;-999999;13;30930;0;1;980;31910;1;1;1;1;ProcFischi1;ListBlockFischi;18;1;2;0;0;5;Pr8_B;200;1;op;5;2;10;1;18;1;0;TrialProc;2186;710;Pr8_B;191;1926;1736;ListFischi1;0;;2;203;172335;8;15;1949;174284;221;1;1949;1;775;320;1728;1;1
TMS_Ibrahim;45;1;"<?xml version=""1.0""?>\n<Clock xmlns:dt=""urn:schemas-microsoft-com:datatypes""><Description dt:dt=""string"">E-Prime Primary Realtime Clock</Description><StartTime><Timestamp dt:dt=""int"">0</Timestamp><DateUtc dt:dt=""string"">2022-11-08T16:17:02Z</DateUtc></StartTime><FrequencyChanges><FrequencyChange><Frequency dt:dt=""r8"">3312871</Frequency><Timestamp dt:dt=""r8"">93160164484</Timestamp><Current dt:dt=""r8"">0</Current><DateUtc dt:dt=""string"">2022-11-08T16:17:02Z</DateUtc></FrequencyChange></FrequencyChanges></Clock>\n";TMS_Ibrahim-45-1;75.030;1.0.0.561;1;;-1328446689;2.0.10.242;2.0.10.242;11/08/2022;08/11/2022 16:17;17:17:02;2.0.10.147;0;;-999999;21;28370;0;1;1073;29443;1;1;1;2;1;0;1;BlockProcFischi;BlockList;1;125;0;;-999999;13;30930;0;1;980;31910;1;1;1;1;ProcFischi1;ListBlockFischi;19;1;2;0;0;5;Pr5_B;200;1;op;5;2;4;1;19;1;0;TrialProc;2430;669;Pr5_B;360;1627;1268;ListFischi1;0;;2;203;180453;7;15;1654;182107;342;1;1654;1;1245;223;1312;1;1
TMS_Ibrahim;45;1;"<?xml version=""1.0""?>\n<Clock xmlns:dt=""urn:schemas-microsoft-com:datatypes""><Description dt:dt=""string"">E-Prime Primary Realtime Clock</Description><StartTime><Timestamp dt:dt=""int"">0</Timestamp><DateUtc dt:dt=""string"">2022-11-08T16:17:02Z</DateUtc></StartTime><FrequencyChanges><FrequencyChange><Frequency dt:dt=""r8"">3312871</Frequency><Timestamp dt:dt=""r8"">93160164484</Timestamp><Current dt:dt=""r8"">0</Current><DateUtc dt:dt=""string"">2022-11-08T16:17:02Z</DateUtc></FrequencyChange></FrequencyChanges></Clock>\n";TMS_Ibrahim-45-1;75.030;1.0.0.561;1;;-1328446689;2.0.10.242;2.0.10.242;11/08/2022;08/11/2022 16:17;17:17:02;2.0.10.147;0;;-999999;21;28370;0;1;1073;29443;1;1;1;2;1;0;1;BlockProcFischi;BlockList;1;125;0;;-999999;13;30930;0;1;980;31910;1;1;1;1;ProcFischi1;ListBlockFischi;20;1;1;0;0;5;Po5_B;150;4;ug;5;2;62;1;20;4;1;TrialProc;2677;978;Po5_B;29;1443;1472;ListFischi1;0;;2;203;188500;10;15;1463;189963;231;1;1463;1;1155;300;1232;1;1
TMS_Ibrahim;45;1;"<?xml version=""1.0""?>\n<Clock xmlns:dt=""urn:schemas-microsoft-com:datatypes""><Description dt:dt=""string"">E-Prime Primary Realtime Clock</Description><StartTime><Timestamp dt:dt=""int"">0</Timestamp><DateUtc dt:dt=""string"">2022-11-08T16:17:02Z</DateUtc></StartTime><FrequencyChanges><FrequencyChange><Frequency dt:dt=""r8"">3312871</Frequency><Timestamp dt:dt=""r8"">93160164484</Timestamp><Current dt:dt=""r8"">0</Current><DateUtc dt:dt=""string"">2022-11-08T16:17:02Z</DateUtc></FrequencyChange></FrequencyChanges></Clock>\n";TMS_Ibrahim-45-1;75.030;1.0.0.561;1;;-1328446689;2.0.10.242;2.0.10.242;11/08/2022;08/11/2022 16:17;17:17:02;2.0.10.147;0;;-999999;21;28370;0;1;1073;29443;1;1;1;2;1;0;1;BlockProcFischi;BlockList;1;125;0;;-999999;13;30930;0;1;980;31910;1;1;1;1;ProcFischi1;ListBlockFischi;21;1;1;0;0;3;Po4_B;225;2;op;3;2;35;1;21;2;0;TrialProc;1728;1347;Po4_B;239;1480;1720;ListFischi1;0;;2;203;197021;19;13;1502;198523;254;1;1502;1;771;225;1248;1;1
TMS_Ibrahim;45;1;"<?xml version=""1.0""?>\n<Clock xmlns:dt=""urn:schemas-microsoft-com:datatypes""><Description dt:dt=""string"">E-Prime Primary Realtime Clock</Description><StartTime><Timestamp dt:dt=""int"">0</Timestamp><DateUtc dt:dt=""string"">2022-11-08T16:17:02Z</DateUtc></StartTime><FrequencyChanges><FrequencyChange><Frequency dt:dt=""r8"">3312871</Frequency><Timestamp dt:dt=""r8"">93160164484</Timestamp><Current dt:dt=""r8"">0</Current><DateUtc dt:dt=""string"">2022-11-08T16:17:02Z</DateUtc></FrequencyChange></FrequencyChanges></Clock>\n";TMS_Ibrahim-45-1;75.030;1.0.0.561;1;;-1328446689;2.0.10.242;2.0.10.242;11/08/2022;08/11/2022 16:17;17:17:02;2.0.10.147;0;;-999999;21;28370;0;1;1073;29443;1;1;1;2;1;0;1;BlockProcFischi;BlockList;1;125;0;;-999999;13;30930;0;1;980;31910;1;1;1;1;ProcFischi1;ListBlockFischi;22;1;2;0;1;5;Pr4_B;200;1;op;5;2;3;1;22;1;0;TrialProc;1819;671;Pr4_B;197;1440;1243;ListFischi1;0;;2;203;205294;9;15;1469;206763;333;1;1469;1;1404;287;1136;1;1
TMS_Ibrahim;45;1;"<?xml version=""1.0""?>\n<Clock xmlns:dt=""urn:schemas-microsoft-com:datatypes""><Description dt:dt=""string"">E-Prime Primary Realtime Clock</Description><StartTime><Timestamp dt:dt=""int"">0</Timestamp><DateUtc dt:dt=""string"">2022-11-08T16:17:02Z</DateUtc></StartTime><FrequencyChanges><FrequencyChange><Frequency dt:dt=""r8"">3312871</Frequency><Timestamp dt:dt=""r8"">93160164484</Timestamp><Current dt:dt=""r8"">0</Current><DateUtc dt:dt=""string"">2022-11-08T16:17:02Z</DateUtc></FrequencyChange></FrequencyChanges></Clock>\n";TMS_Ibrahim-45-1;75.030;1.0.0.561;1;;-1328446689;2.0.10.242;2.0.10.242;11/08/2022;08/11/2022 16:17;17:17:02;2.0.10.147;0;;-999999;21;28370;0;1;1073;29443;1;1;1;2;1;0;1;BlockProcFischi;BlockList;1;125;0;;-999999;13;30930;0;1;980;31910;1;1;1;1;ProcFischi1;ListBlockFischi;23;1;1;0;0;5;Po3_B;125;4;ug;5;2;55;1;23;4;1;TrialProc;1788;1318;Po3_B;49;1535;1584;ListFischi1;0;;2;203;214030;17;155;2012;216042;236;1;1564;1;806;572;1328;1;1
TMS_Ibrahim;45;1;"<?xml version=""1.0""?>\n<Clock xmlns:dt=""urn:schemas-microsoft-com:datatypes""><Description dt:dt=""string"">E-Prime Primary Realtime Clock</Description><StartTime><Timestamp dt:dt=""int"">0</Timestamp><DateUtc dt:dt=""string"">2022-11-08T16:17:02Z</DateUtc></StartTime><FrequencyChanges><FrequencyChange><Frequency dt:dt=""r8"">3312871</Frequency><Timestamp dt:dt=""r8"">93160164484</Timestamp><Current dt:dt=""r8"">0</Current><DateUtc dt:dt=""string"">2022-11-08T16:17:02Z</DateUtc></FrequencyChange></FrequencyChanges></Clock>\n";TMS_Ibrahim-45-1;75.030;1.0.0.561;1;;-1328446689;2.0.10.242;2.0.10.242;11/08/2022;08/11/2022 16:17;17:17:02;2.0.10.147;0;;-999999;21;28370;0;1;1073;29443;1;1;1;2;1;0;1;BlockProcFischi;BlockList;1;125;0;;-999999;13;30930;0;1;980;31910;1;1;1;1;ProcFischi1;ListBlockFischi;24;1;2;0;1;5;Pr3_B;200;1;op;5;2;7;1;24;1;0;TrialProc;1738;707;Pr3_B;37;1744;1707;ListFischi1;0;;2;203;222090;7;155;2768;224858;224;1;1776;1;909;411;1552;1;1
TMS_Ibrahim;45;1;"<?xml version=""1.0""?>\n<Clock xmlns:dt=""urn:schemas-microsoft-com:datatypes""><Description dt:dt=""string"">E-Prime Primary Realtime Clock</Description><StartTime><Timestamp dt:dt=""int"">0</Timestamp><DateUtc dt:dt=""string"">2022-11-08T16:17:02Z</DateUtc></StartTime><FrequencyChanges><FrequencyChange><Frequency dt:dt=""r8"">3312871</Frequency><Timestamp dt:dt=""r8"">93160164484</Timestamp><Current dt:dt=""r8"">0</Current><DateUtc dt:dt=""string"">2022-11-08T16:17:02Z</DateUtc></FrequencyChange></FrequencyChanges></Clock>\n";TMS_Ibrahim-45-1;75.030;1.0.0.561;1;;-1328446689;2.0.10.242;2.0.10.242;11/08/2022;08/11/2022 16:17;17:17:02;2.0.10.147;0;;-999999;21;28370;0;1;1073;29443;1;1;1;2;1;0;1;BlockProcFischi;BlockList;1;125;0;;-999999;13;30930;0;1;980;31910;1;1;1;1;ProcFischi1;ListBlockFischi;25;1;2;0;0;3;Pr3_B;175;3;ug;3;2;28;1;25;3;1;TrialProc;1969;712;Pr3_B;277;1435;1711;ListFischi1;0;;2;201;229791;10;1333;2891;232682;363;1;1467;1;1991;480;1104;1;1
TMS_Ibrahim;45;1;"<?xml version=""1.0""?>\n<Clock xmlns:dt=""urn:schemas-microsoft-com:datatypes""><Description dt:dt=""string"">E-Prime Primary Realtime Clock</Description><StartTime><Timestamp dt:dt=""int"">0</Timestamp><DateUtc dt:dt=""string"">2022-11-08T16:17:02Z</DateUtc></StartTime><FrequencyChanges><FrequencyChange><Frequency dt:dt=""r8"">3312871</Frequency><Timestamp dt:dt=""r8"">93160164484</Timestamp><Current dt:dt=""r8"">0</Current><DateUtc dt:dt=""string"">2022-11-08T16:17:02Z</DateUtc></FrequencyChange></FrequencyChanges></Clock>\n";TMS_Ibrahim-45-1;75.030;1.0.0.561;1;;-1328446689;2.0.10.242;2.0.10.242;11/08/2022;08/11/2022 16:17;17:17:02;2.0.10.147;0;;-999999;21;28370;0;1;1073;29443;1;1;1;2;1;0;1;BlockProcFischi;BlockList;1;125;0;;-999999;13;30930;0;1;980;31910;1;1;1;1;ProcFischi1;ListBlockFischi;26;1;1;0;0;3;Po2_B;225;2;op;3;2;38;1;26;2;0;TrialProc;2505;1582;Po2_B;209;1601;1810;ListFischi1;0;;2;201;237730;14;13;1624;239354;328;1;1624;1;977;580;1296;1;1
TMS_Ibrahim;45;1;"<?xml version=""1.0""?>\n<Clock xmlns:dt=""urn:schemas-microsoft-com:datatypes""><Description dt:dt=""string"">E-Prime Primary Realtime Clock</Description><StartTime><Timestamp dt:dt=""int"">0</Timestamp><DateUtc dt:dt=""string"">2022-11-08T16:17:02Z</DateUtc></StartTime><FrequencyChanges><FrequencyChange><Frequency dt:dt=""r8"">3312871</Frequency><Timestamp dt:dt=""r8"">93160164484</Timestamp><Current dt:dt=""r8"">0</Current><DateUtc dt:dt=""string"">2022-11-08T16:17:02Z</DateUtc></FrequencyChange></FrequencyChanges></Clock>\n";TMS_Ibrahim-45-1;75.030;1.0.0.561;1;;-1328446689;2.0.10.242;2.0.10.242;11/08/2022;08/11/2022 16:17;17:17:02;2.0.10.147;0;;-999999;21;28370;0;1;1073;29443;1;1;1;2;1;0;1;BlockProcFischi;BlockList;1;125;0;;-999999;13;30930;0;1;980;31910;1;1;1;1;ProcFischi1;ListBlockFischi;27;0;1;0;0;5;Po4_B;;4;ug;3;2;56;1;27;4;1;TrialProc;2298;1341;Po4_B;118;1596;1715;ListFischi1;0;;2;203;246714;13;133;2431;249145;239;1;1631;1;631;369;1392;1;0
TMS_Ibrahim;45;1;"<?xml version=""1.0""?>\n<Clock xmlns:dt=""urn:schemas-microsoft-com:datatypes""><Description dt:dt=""string"">E-Prime Primary Realtime Clock</Description><StartTime><Timestamp dt:dt=""int"">0</Timestamp><DateUtc dt:dt=""string"">2022-11-08T16:17:02Z</DateUtc></StartTime><FrequencyChanges><FrequencyChange><Frequency dt:dt=""r8"">3312871</Frequency><Timestamp dt:dt=""r8"">93160164484</Timestamp><Current dt:dt=""r8"">0</Current><DateUtc dt:dt=""string"">2022-11-08T16:17:02Z</DateUtc></FrequencyChange></FrequencyChanges></Clock>\n";TMS_Ibrahim-45-1;75.030;1.0.0.561;1;;-1328446689;2.0.10.242;2.0.10.242;11/08/2022;08/11/2022 16:17;17:17:02;2.0.10.147;0;;-999999;21;28370;0;1;1073;29443;1;1;1;2;1;0;1;BlockProcFischi;BlockList;1;125;0;;-999999;13;30930;0;1;980;31910;1;1;1;1;ProcFischi1;ListBlockFischi;28;1;1;0;0;3;Po2_B;225;2;op;3;2;43;1;28;2;0;TrialProc;1733;1582;Po2_B;126;1934;1808;ListFischi1;0;;2;201;254218;13;13;1967;256185;527;1;1967;1;1091;574;1440;1;1
TMS_Ibrahim;45;1;"<?xml version=""1.0""?>\n<Clock xmlns:dt=""urn:schemas-microsoft-com:datatypes""><Description dt:dt=""string"">E-Prime Primary Realtime Clock</Description><StartTime><Timestamp dt:dt=""int"">0</Timestamp><DateUtc dt:dt=""string"">2022-11-08T16:17:02Z</DateUtc></StartTime><FrequencyChanges><FrequencyChange><Frequency dt:dt=""r8"">3312871</Frequency><Timestamp dt:dt=""r8"">93160164484</Timestamp><Current dt:dt=""r8"">0</Current><DateUtc dt:dt=""string"">2022-11-08T16:17:02Z</DateUtc></FrequencyChange></FrequencyChanges></Clock>\n";TMS_Ibrahim-45-1;75.030;1.0.0.561;1;;-1328446689;2.0.10.242;2.0.10.242;11/08/2022;08/11/2022 16:17;17:17:02;2.0.10.147;0;;-999999;21;28370;0;1;1073;29443;1;1;1;2;1;0;1;BlockProcFischi;BlockList;1;125;0;;-999999;13;30930;0;1;980;31910;1;1;1;1;ProcFischi1;ListBlockFischi;29;1;2;0;1;3;Pr8_B;175;3;ug;3;2;26;1;29;3;1;TrialProc;1891;711;Pr8_B;46;1783;1737;ListFischi1;0;;2;203;262072;9;13;1809;263881;401;1;1809;1;651;525;1408;1;1
TMS_Ibrahim;45;1;"<?xml version=""1.0""?>\n<Clock xmlns:dt=""urn:schemas-microsoft-com:datatypes""><Description dt:dt=""string"">E-Prime Primary Realtime Clock</Description><StartTime><Timestamp dt:dt=""int"">0</Timestamp><DateUtc dt:dt=""string"">2022-11-08T16:17:02Z</DateUtc></StartTime><FrequencyChanges><FrequencyChange><Frequency dt:dt=""r8"">3312871</Frequency><Timestamp dt:dt=""r8"">93160164484</Timestamp><Current dt:dt=""r8"">0</Current><DateUtc dt:dt=""string"">2022-11-08T16:17:02Z</DateUtc></FrequencyChange></FrequencyChanges></Clock>\n";TMS_Ibrahim-45-1;75.030;1.0.0.561;1;;-1328446689;2.0.10.242;2.0.10.242;11/08/2022;08/11/2022 16:17;17:17:02;2.0.10.147;0;;-999999;21;28370;0;1;1073;29443;1;1;1;2;1;0;1;BlockProcFischi;BlockList;1;125;0;;-999999;13;30930;0;1;980;31910;1;1;1;1;ProcFischi1;ListBlockFischi;30;1;2;0;0;3;Pr5_B;150;3;ug;3;2;25;1;30;3;1;TrialProc;3202;671;Pr5_B;276;1547;1270;ListFischi1;0;;2;203;270535;10;13;1570;272105;242;1;1570;1;1156;543;1328;1;1
TMS_Ibrahim;45;1;"<?xml version=""1.0""?>\n<Clock xmlns:dt=""urn:schemas-microsoft-com:datatypes""><Description dt:dt=""string"">E-Prime Primary Realtime Clock</Description><StartTime><Timestamp dt:dt=""int"">0</Timestamp><DateUtc dt:dt=""string"">2022-11-08T16:17:02Z</DateUtc></StartTime><FrequencyChanges><FrequencyChange><Frequency dt:dt=""r8"">3312871</Frequency><Timestamp dt:dt=""r8"">93160164484</Timestamp><Current dt:dt=""r8"">0</Current><DateUtc dt:dt=""string"">2022-11-08T16:17:02Z</DateUtc></FrequencyChange></FrequencyChanges></Clock>\n";TMS_Ibrahim-45-1;75.030;1.0.0.561;1;;-1328446689;2.0.10.242;2.0.10.242;11/08/2022;08/11/2022 16:17;17:17:02;2.0.10.147;0;;-999999;21;28370;0;1;1073;29443;1;1;1;2;1;0;1;BlockProcFischi;BlockList;1;125;0;;-999999;13;30930;0;1;980;31910;1;1;1;1;ProcFischi1;ListBlockFischi;31;1;2;0;1;3;Pr2_B;150;3;ug;3;2;17;1;31;3;1;TrialProc;2067;715;Pr2_B;140;1389;1249;ListFischi1;0;;2;203;279608;13;13;1408;281016;272;1;1408;1;1439;565;1136;1;1
TMS_Ibrahim;45;1;"<?xml version=""1.0""?>\n<Clock xmlns:dt=""urn:schemas-microsoft-com:datatypes""><Description dt:dt=""string"">E-Prime Primary Realtime Clock</Description><StartTime><Timestamp dt:dt=""int"">0</Timestamp><DateUtc dt:dt=""string"">2022-11-08T16:17:02Z</DateUtc></StartTime><FrequencyChanges><FrequencyChange><Frequency dt:dt=""r8"">3312871</Frequency><Timestamp dt:dt=""r8"">93160164484</Timestamp><Current dt:dt=""r8"">0</Current><DateUtc dt:dt=""string"">2022-11-08T16:17:02Z</DateUtc></FrequencyChange></FrequencyChanges></Clock>\n";TMS_Ibrahim-45-1;75.030;1.0.0.561;1;;-1328446689;2.0.10.242;2.0.10.242;11/08/2022;08/11/2022 16:17;17:17:02;2.0.10.147;0;;-999999;21;28370;0;1;1073;29443;1;1;1;2;1;0;1;BlockProcFischi;BlockList;1;125;0;;-999999;13;30930;0;1;980;31910;1;1;1;1;ProcFischi1;ListBlockFischi;32;1;1;1;0;3;Pomod_B;200;2;op;3;2;47;1;32;2;0;TrialProc;2209;1314;Pomod_B;455;2128;1673;ListFischi1;0;;2;203;287845;13;13;2163;290008;323;1;2163;1;637;532;1840;1;1
TMS_Ibrahim;45;1;"<?xml version=""1.0""?>\n<Clock xmlns:dt=""urn:schemas-microsoft-com:datatypes""><Description dt:dt=""string"">E-Prime Primary Realtime Clock</Description><StartTime><Timestamp dt:dt=""int"">0</Timestamp><DateUtc dt:dt=""string"">2022-11-08T16:17:02Z</DateUtc></StartTime><FrequencyChanges><FrequencyChange><Frequency dt:dt=""r8"">3312871</Frequency><Timestamp dt:dt=""r8"">93160164484</Timestamp><Current dt:dt=""r8"">0</Current><DateUtc dt:dt=""string"">2022-11-08T16:17:02Z</DateUtc></FrequencyChange></FrequencyChanges></Clock>\n";TMS_Ibrahim-45-1;75.030;1.0.0.561;1;;-1328446689;2.0.10.242;2.0.10.242;11/08/2022;08/11/2022 16:17;17:17:02;2.0.10.147;0;;-999999;21;28370;0;1;1073;29443;1;1;1;2;1;0;1;BlockProcFischi;BlockList;1;125;0;;-999999;13;30930;0;1;980;31910;1;1;1;1;ProcFischi1;ListBlockFischi;33;1;1;0;1;3;Po5_B;200;2;op;3;2;46;1;33;2;0;TrialProc;3688;976;Po5_B;66;1536;1470;ListFischi1;0;;2;203;296153;8;13;1567;297720;223;1;1567;1;1196;388;1344;1;1
TMS_Ibrahim;45;1;"<?xml version=""1.0""?>\n<Clock xmlns:dt=""urn:schemas-microsoft-com:datatypes""><Description dt:dt=""string"">E-Prime Primary Realtime Clock</Description><StartTime><Timestamp dt:dt=""int"">0</Timestamp><DateUtc dt:dt=""string"">2022-11-08T16:17:02Z</DateUtc></StartTime><FrequencyChanges><FrequencyChange><Frequency dt:dt=""r8"">3312871</Frequency><Timestamp dt:dt=""r8"">93160164484</Timestamp><Current dt:dt=""r8"">0</Current><DateUtc dt:dt=""string"">2022-11-08T16:17:02Z</DateUtc></FrequencyChange></FrequencyChanges></Clock>\n";TMS_Ibrahim-45-1;75.030;1.0.0.561;1;;-1328446689;2.0.10.242;2.0.10.242;11/08/2022;08/11/2022 16:17;17:17:02;2.0.10.147;0;;-999999;21;28370;0;1;1073;29443;1;1;1;2;1;0;1;BlockProcFischi;BlockList;1;125;0;;-999999;13;30930;0;1;980;31910;1;1;1;1;ProcFischi1;ListBlockFischi;34;1;2;0;0;5;Pr2_B;175;1;op;5;2;6;1;34;1;0;TrialProc;3215;716;Pr2_B;238;1488;1250;ListFischi1;0;;2;203;305529;15;155;2206;307735;478;1;1518;1;1154;553;1040;1;1
TMS_Ibrahim;45;1;"<?xml version=""1.0""?>\n<Clock xmlns:dt=""urn:schemas-microsoft-com:datatypes""><Description dt:dt=""string"">E-Prime Primary Realtime Clock</Description><StartTime><Timestamp dt:dt=""int"">0</Timestamp><DateUtc dt:dt=""string"">2022-11-08T16:17:02Z</DateUtc></StartTime><FrequencyChanges><FrequencyChange><Frequency dt:dt=""r8"">3312871</Frequency><Timestamp dt:dt=""r8"">93160164484</Timestamp><Current dt:dt=""r8"">0</Current><DateUtc dt:dt=""string"">2022-11-08T16:17:02Z</DateUtc></FrequencyChange></FrequencyChanges></Clock>\n";TMS_Ibrahim-45-1;75.030;1.0.0.561;1;;-1328446689;2.0.10.242;2.0.10.242;11/08/2022;08/11/2022 16:17;17:17:02;2.0.10.147;0;;-999999;21;28370;0;1;1073;29443;1;1;1;2;1;0;1;BlockProcFischi;BlockList;1;125;0;;-999999;13;30930;0;1;980;31910;1;1;1;1;ProcFischi1;ListBlockFischi;35;1;1;0;0;3;Po5_B;175;2;op;3;2;36;1;35;2;0;TrialProc;3921;976;Po5_B;62;1409;1471;ListFischi1;0;;2;203;313720;8;13;1439;315159;335;1;1439;1;665;534;1104;1;1
TMS_Ibrahim;45;1;"<?xml version=""1.0""?>\n<Clock xmlns:dt=""urn:schemas-microsoft-com:datatypes""><Description dt:dt=""string"">E-Prime Primary Realtime Clock</Description><StartTime><Timestamp dt:dt=""int"">0</Timestamp><DateUtc dt:dt=""string"">2022-11-08T16:17:02Z</DateUtc></StartTime><FrequencyChanges><FrequencyChange><Frequency dt:dt=""r8"">3312871</Frequency><Timestamp dt:dt=""r8"">93160164484</Timestamp><Current dt:dt=""r8"">0</Current><DateUtc dt:dt=""string"">2022-11-08T16:17:02Z</DateUtc></FrequencyChange></FrequencyChanges></Clock>\n";TMS_Ibrahim-45-1;75.030;1.0.0.561;1;;-1328446689;2.0.10.242;2.0.10.242;11/08/2022;08/11/2022 16:17;17:17:02;2.0.10.147;0;;-999999;21;28370;0;1;1073;29443;1;1;1;2;1;0;1;BlockProcFischi;BlockList;1;125;0;;-999999;13;30930;0;1;980;31910;1;1;1;1;ProcFischi1;ListBlockFischi;36;1;2;0;1;5;Pr4_B;175;1;op;5;2;8;1;36;1;0;TrialProc;2194;670;Pr4_B;210;1454;1243;ListFischi1;0;;2;203;323515;9;15;1484;324999;284;1;1484;1;1082;243;1200;1;1
TMS_Ibrahim;45;1;"<?xml version=""1.0""?>\n<Clock xmlns:dt=""urn:schemas-microsoft-com:datatypes""><Description dt:dt=""string"">E-Prime Primary Realtime Clock</Description><StartTime><Timestamp dt:dt=""int"">0</Timestamp><DateUtc dt:dt=""string"">2022-11-08T16:17:02Z</DateUtc></StartTime><FrequencyChanges><FrequencyChange><Frequency dt:dt=""r8"">3312871</Frequency><Timestamp dt:dt=""r8"">93160164484</Timestamp><Current dt:dt=""r8"">0</Current><DateUtc dt:dt=""string"">2022-11-08T16:17:02Z</DateUtc></FrequencyChange></FrequencyChanges></Clock>\n";TMS_Ibrahim-45-1;75.030;1.0.0.561;1;;-1328446689;2.0.10.242;2.0.10.242;11/08/2022;08/11/2022 16:17;17:17:02;2.0.10.147;0;;-999999;21;28370;0;1;1073;29443;1;1;1;2;1;0;1;BlockProcFischi;BlockList;1;125;0;;-999999;13;30930;0;1;980;31910;1;1;1;1;ProcFischi1;ListBlockFischi;37;1;1;0;0;5;Po5_B;100;4;ug;5;2;57;1;37;4;1;TrialProc;2873;974;Po5_B;127;1342;1468;ListFischi1;0;;2;203;332420;7;15;1363;333783;179;1;1363;1;702;375;1184;1;1
TMS_Ibrahim;45;1;"<?xml version=""1.0""?>\n<Clock xmlns:dt=""urn:schemas-microsoft-com:datatypes""><Description dt:dt=""string"">E-Prime Primary Realtime Clock</Description><StartTime><Timestamp dt:dt=""int"">0</Timestamp><DateUtc dt:dt=""string"">2022-11-08T16:17:02Z</DateUtc></StartTime><FrequencyChanges><FrequencyChange><Frequency dt:dt=""r8"">3312871</Frequency><Timestamp dt:dt=""r8"">93160164484</Timestamp><Current dt:dt=""r8"">0</Current><DateUtc dt:dt=""string"">2022-11-08T16:17:02Z</DateUtc></FrequencyChange></FrequencyChanges></Clock>\n";TMS_Ibrahim-45-1;75.030;1.0.0.561;1;;-1328446689;2.0.10.242;2.0.10.242;11/08/2022;08/11/2022 16:17;17:17:02;2.0.10.147;0;;-999999;21;28370;0;1;1073;29443;1;1;1;2;1;0;1;BlockProcFischi;BlockList;1;125;0;;-999999;13;30930;0;1;980;31910;1;1;1;1;ProcFischi1;ListBlockFischi;38;1;1;0;0;3;Po2_B;150;2;op;3;2;33;1;38;2;0;TrialProc;3261;1576;Po2_B;275;2077;1803;ListFischi1;0;;2;203;341643;7;13;2107;343750;155;1;2107;1;1129;477;1952;1;1
TMS_Ibrahim;45;1;"<?xml version=""1.0""?>\n<Clock xmlns:dt=""urn:schemas-microsoft-com:datatypes""><Description dt:dt=""string"">E-Prime Primary Realtime Clock</Description><StartTime><Timestamp dt:dt=""int"">0</Timestamp><DateUtc dt:dt=""string"">2022-11-08T16:17:02Z</DateUtc></StartTime><FrequencyChanges><FrequencyChange><Frequency dt:dt=""r8"">3312871</Frequency><Timestamp dt:dt=""r8"">93160164484</Timestamp><Current dt:dt=""r8"">0</Current><DateUtc dt:dt=""string"">2022-11-08T16:17:02Z</DateUtc></FrequencyChange></FrequencyChanges></Clock>\n";TMS_Ibrahim-45-1;75.030;1.0.0.561;1;;-1328446689;2.0.10.242;2.0.10.242;11/08/2022;08/11/2022 16:17;17:17:02;2.0.10.147;0;;-999999;21;28370;0;1;1073;29443;1;1;1;2;1;0;1;BlockProcFischi;BlockList;1;125;0;;-999999;13;30930;0;1;980;31910;1;1;1;1;ProcFischi1;ListBlockFischi;39;1;1;0;1;5;Po8_B;100;4;ug;5;2;53;1;39;4;1;TrialProc;2374;1249;Po8_B;136;1719;1582;ListFischi1;0;;2;203;351058;15;15;1748;352806;196;1;1748;1;621;219;1552;1;1
TMS_Ibrahim;45;1;"<?xml version=""1.0""?>\n<Clock xmlns:dt=""urn:schemas-microsoft-com:datatypes""><Description dt:dt=""string"">E-Prime Primary Realtime Clock</Description><StartTime><Timestamp dt:dt=""int"">0</Timestamp><DateUtc dt:dt=""string"">2022-11-08T16:17:02Z</DateUtc></StartTime><FrequencyChanges><FrequencyChange><Frequency dt:dt=""r8"">3312871</Frequency><Timestamp dt:dt=""r8"">93160164484</Timestamp><Current dt:dt=""r8"">0</Current><DateUtc dt:dt=""string"">2022-11-08T16:17:02Z</DateUtc></FrequencyChange></FrequencyChanges></Clock>\n";TMS_Ibrahim-45-1;75.030;1.0.0.561;1;;-1328446689;2.0.10.242;2.0.10.242;11/08/2022;08/11/2022 16:17;17:17:02;2.0.10.147;0;;-999999;21;28370;0;1;1073;29443;1;1;1;2;1;0;1;BlockProcFischi;BlockList;1;125;0;;-999999;13;30930;0;1;980;31910;1;1;1;1;ProcFischi1;ListBlockFischi;40;1;2;0;2;5;Pr5_B;175;1;op;5;2;14;1;40;1;0;TrialProc;3673;670;Pr5_B;237;1505;1269;ListFischi1;0;;2;203;359568;9;151;5254;364822;150;1;1526;1;2265;252;1376;1;1
TMS_Ibrahim;45;1;"<?xml version=""1.0""?>\n<Clock xmlns:dt=""urn:schemas-microsoft-com:datatypes""><Description dt:dt=""string"">E-Prime Primary Realtime Clock</Description><StartTime><Timestamp dt:dt=""int"">0</Timestamp><DateUtc dt:dt=""string"">2022-11-08T16:17:02Z</DateUtc></StartTime><FrequencyChanges><FrequencyChange><Frequency dt:dt=""r8"">3312871</Frequency><Timestamp dt:dt=""r8"">93160164484</Timestamp><Current dt:dt=""r8"">0</Current><DateUtc dt:dt=""string"">2022-11-08T16:17:02Z</DateUtc></FrequencyChange></FrequencyChanges></Clock>\n";TMS_Ibrahim-45-1;75.030;1.0.0.561;1;;-1328446689;2.0.10.242;2.0.10.242;11/08/2022;08/11/2022 16:17;17:17:02;2.0.10.147;0;;-999999;21;28370;0;1;1073;29443;1;1;1;2;1;0;1;BlockProcFischi;BlockList;1;125;0;;-999999;13;30930;0;1;980;31910;1;1;1;1;ProcFischi1;ListBlockFischi;41;1;1;0;2;5;Po5_B;100;4;ug;5;2;52;1;41;4;1;TrialProc;1676;980;Po5_B;99;1375;1473;ListFischi1;0;;2;203;369015;11;15;1406;370421;398;1;1406;1;1507;575;1008;1;1
TMS_Ibrahim;45;1;"<?xml version=""1.0""?>\n<Clock xmlns:dt=""urn:schemas-microsoft-com:datatypes""><Description dt:dt=""string"">E-Prime Primary Realtime Clock</Description><StartTime><Timestamp dt:dt=""int"">0</Timestamp><DateUtc dt:dt=""string"">2022-11-08T16:17:02Z</DateUtc></StartTime><FrequencyChanges><FrequencyChange><Frequency dt:dt=""r8"">3312871</Frequency><Timestamp dt:dt=""r8"">93160164484</Timestamp><Current dt:dt=""r8"">0</Current><DateUtc dt:dt=""string"">2022-11-08T16:17:02Z</DateUtc></FrequencyChange></FrequencyChanges></Clock>\n";TMS_Ibrahim-45-1;75.030;1.0.0.561;1;;-1328446689;2.0.10.242;2.0.10.242;11/08/2022;08/11/2022 16:17;17:17:02;2.0.10.147;0;;-999999;21;28370;0;1;1073;29443;1;1;1;2;1;0;1;BlockProcFischi;BlockList;1;125;0;;-999999;13;30930;0;1;980;31910;1;1;1;1;ProcFischi1;ListBlockFischi;42;1;2;0;0;5;Pr2_B;200;1;op;5;2;1;1;42;1;0;TrialProc;3211;710;Pr2_B;41;1285;1244;ListFischi1;0;;2;203;377082;8;155;2491;379573;155;1;1307;1;1556;214;1152;1;1
TMS_Ibrahim;45;1;"<?xml version=""1.0""?>\n<Clock xmlns:dt=""urn:schemas-microsoft-com:datatypes""><Description dt:dt=""string"">E-Prime Primary Realtime Clock</Description><StartTime><Timestamp dt:dt=""int"">0</Timestamp><DateUtc dt:dt=""string"">2022-11-08T16:17:02Z</DateUtc></StartTime><FrequencyChanges><FrequencyChange><Frequency dt:dt=""r8"">3312871</Frequency><Timestamp dt:dt=""r8"">93160164484</Timestamp><Current dt:dt=""r8"">0</Current><DateUtc dt:dt=""string"">2022-11-08T16:17:02Z</DateUtc></FrequencyChange></FrequencyChanges></Clock>\n";TMS_Ibrahim-45-1;75.030;1.0.0.561;1;;-1328446689;2.0.10.242;2.0.10.242;11/08/2022;08/11/2022 16:17;17:17:02;2.0.10.147;0;;-999999;21;28370;0;1;1073;29443;1;1;1;2;1;0;1;BlockProcFischi;BlockList;1;125;0;;-999999;13;30930;0;1;980;31910;1;1;1;1;ProcFischi1;ListBlockFischi;43;1;1;0;1;3;Po8_B;150;2;op;3;2;37;1;43;2;0;TrialProc;2642;1246;Po8_B;19;1597;1579;ListFischi1;0;;2;203;385594;12;13;1627;387221;187;1;1627;1;737;421;1440;1;1
TMS_Ibrahim;45;1;"<?xml version=""1.0""?>\n<Clock xmlns:dt=""urn:schemas-microsoft-com:datatypes""><Description dt:dt=""string"">E-Prime Primary Realtime Clock</Description><StartTime><Timestamp dt:dt=""int"">0</Timestamp><DateUtc dt:dt=""string"">2022-11-08T16:17:02Z</DateUtc></StartTime><FrequencyChanges><FrequencyChange><Frequency dt:dt=""r8"">3312871</Frequency><Timestamp dt:dt=""r8"">93160164484</Timestamp><Current dt:dt=""r8"">0</Current><DateUtc dt:dt=""string"">2022-11-08T16:17:02Z</DateUtc></FrequencyChange></FrequencyChanges></Clock>\n";TMS_Ibrahim-45-1;75.030;1.0.0.561;1;;-1328446689;2.0.10.242;2.0.10.242;11/08/2022;08/11/2022 16:17;17:17:02;2.0.10.147;0;;-999999;21;28370;0;1;1073;29443;1;1;1;2;1;0;1;BlockProcFischi;BlockList;1;125;0;;-999999;13;30930;0;1;980;31910;1;1;1;1;ProcFischi1;ListBlockFischi;44;1;2;0;1;3;Pr2_B;150;3;ug;3;2;27;1;44;3;1;TrialProc;2837;709;Pr2_B;375;1616;1240;ListFischi1;0;;2;203;393836;7;13;1641;395477;473;1;1641;1;1131;560;1168;1;1
TMS_Ibrahim;45;1;"<?xml version=""1.0""?>\n<Clock xmlns:dt=""urn:schemas-microsoft-com:datatypes""><Description dt:dt=""string"">E-Prime Primary Realtime Clock</Description><StartTime><Timestamp dt:dt=""int"">0</Timestamp><DateUtc dt:dt=""string"">2022-11-08T16:17:02Z</DateUtc></StartTime><FrequencyChanges><FrequencyChange><Frequency dt:dt=""r8"">3312871</Frequency><Timestamp dt:dt=""r8"">93160164484</Timestamp><Current dt:dt=""r8"">0</Current><DateUtc dt:dt=""string"">2022-11-08T16:17:02Z</DateUtc></FrequencyChange></FrequencyChanges></Clock>\n";TMS_Ibrahim-45-1;75.030;1.0.0.561;1;;-1328446689;2.0.10.242;2.0.10.242;11/08/2022;08/11/2022 16:17;17:17:02;2.0.10.147;0;;-999999;21;28370;0;1;1073;29443;1;1;1;2;1;0;1;BlockProcFischi;BlockList;1;125;0;;-999999;13;30930;0;1;980;31910;1;1;1;1;ProcFischi1;ListBlockFischi;45;1;2;1;2;3;Prmod_B;150;3;ug;3;2;31;1;45;3;1;TrialProc;2254;1308;Prmod_B;1;1643;1641;ListFischi1;0;;2;201;401580;7;13;1672;403252;9;1;1672;1;966;496;1663;1;1
TMS_Ibrahim;45;1;"<?xml version=""1.0""?>\n<Clock xmlns:dt=""urn:schemas-microsoft-com:datatypes""><Description dt:dt=""string"">E-Prime Primary Realtime Clock</Description><StartTime><Timestamp dt:dt=""int"">0</Timestamp><DateUtc dt:dt=""string"">2022-11-08T16:17:02Z</DateUtc></StartTime><FrequencyChanges><FrequencyChange><Frequency dt:dt=""r8"">3312871</Frequency><Timestamp dt:dt=""r8"">93160164484</Timestamp><Current dt:dt=""r8"">0</Current><DateUtc dt:dt=""string"">2022-11-08T16:17:02Z</DateUtc></FrequencyChange></FrequencyChanges></Clock>\n";TMS_Ibrahim-45-1;75.030;1.0.0.561;1;;-1328446689;2.0.10.242;2.0.10.242;11/08/2022;08/11/2022 16:17;17:17:02;2.0.10.147;0;;-999999;21;28370;0;1;1073;29443;1;1;1;2;1;0;1;BlockProcFischi;BlockList;1;125;0;;-999999;13;30930;0;1;980;31910;1;1;1;1;ProcFischi1;ListBlockFischi;46;1;1;0;0;3;Po3_B;125;2;op;3;2;39;1;46;2;0;TrialProc;1978;1317;Po3_B;67;1515;1582;ListFischi1;0;;2;203;409755;15;13;1545;411300;233;1;1545;1;1150;316;1312;1;1
TMS_Ibrahim;45;1;"<?xml version=""1.0""?>\n<Clock xmlns:dt=""urn:schemas-microsoft-com:datatypes""><Description dt:dt=""string"">E-Prime Primary Realtime Clock</Description><StartTime><Timestamp dt:dt=""int"">0</Timestamp><DateUtc dt:dt=""string"">2022-11-08T16:17:02Z</DateUtc></StartTime><FrequencyChanges><FrequencyChange><Frequency dt:dt=""r8"">3312871</Frequency><Timestamp dt:dt=""r8"">93160164484</Timestamp><Current dt:dt=""r8"">0</Current><DateUtc dt:dt=""string"">2022-11-08T16:17:02Z</DateUtc></FrequencyChange></FrequencyChanges></Clock>\n";TMS_Ibrahim-45-1;75.030;1.0.0.561;1;;-1328446689;2.0.10.242;2.0.10.242;11/08/2022;08/11/2022 16:17;17:17:02;2.0.10.147;0;;-999999;21;28370;0;1;1073;29443;1;1;1;2;1;0;1;BlockProcFischi;BlockList;1;125;0;;-999999;13;30930;0;1;980;31910;1;1;1;1;ProcFischi1;ListBlockFischi;47;1;2;0;0;3;Pr3_B;125;3;ug;3;2;23;1;47;3;1;TrialProc;2327;716;Pr3_B;33;1683;1715;ListFischi1;0;;2;203;418805;15;13;1711;420516;159;1;1711;1;1019;542;1552;1;1
TMS_Ibrahim;45;1;"<?xml version=""1.0""?>\n<Clock xmlns:dt=""urn:schemas-microsoft-com:datatypes""><Description dt:dt=""string"">E-Prime Primary Realtime Clock</Description><StartTime><Timestamp dt:dt=""int"">0</Timestamp><DateUtc dt:dt=""string"">2022-11-08T16:17:02Z</DateUtc></StartTime><FrequencyChanges><FrequencyChange><Frequency dt:dt=""r8"">3312871</Frequency><Timestamp dt:dt=""r8"">93160164484</Timestamp><Current dt:dt=""r8"">0</Current><DateUtc dt:dt=""string"">2022-11-08T16:17:02Z</DateUtc></FrequencyChange></FrequencyChanges></Clock>\n";TMS_Ibrahim-45-1;75.030;1.0.0.561;1;;-1328446689;2.0.10.242;2.0.10.242;11/08/2022;08/11/2022 16:17;17:17:02;2.0.10.147;0;;-999999;21;28370;0;1;1073;29443;1;1;1;2;1;0;1;BlockProcFischi;BlockList;1;125;0;;-999999;13;30930;0;1;980;31910;1;1;1;1;ProcFischi1;ListBlockFischi;48;1;2;0;0;3;Pr5_B;100;3;ug;3;2;30;1;48;3;1;TrialProc;1829;670;Pr5_B;377;1647;1270;ListFischi1;0;;3;201;426528;9;13;1668;428196;212;1;1668;1;837;292;1456;1;1
TMS_Ibrahim;45;1;"<?xml version=""1.0""?>\n<Clock xmlns:dt=""urn:schemas-microsoft-com:datatypes""><Description dt:dt=""string"">E-Prime Primary Realtime Clock</Description><StartTime><Timestamp dt:dt=""int"">0</Timestamp><DateUtc dt:dt=""string"">2022-11-08T16:17:02Z</DateUtc></StartTime><FrequencyChanges><FrequencyChange><Frequency dt:dt=""r8"">3312871</Frequency><Timestamp dt:dt=""r8"">93160164484</Timestamp><Current dt:dt=""r8"">0</Current><DateUtc dt:dt=""string"">2022-11-08T16:17:02Z</DateUtc></FrequencyChange></FrequencyChanges></Clock>\n";TMS_Ibrahim-45-1;75.030;1.0.0.561;1;;-1328446689;2.0.10.242;2.0.10.242;11/08/2022;08/11/2022 16:17;17:17:02;2.0.10.147;0;;-999999;21;28370;0;1;1073;29443;1;1;1;2;1;0;1;BlockProcFischi;BlockList;1;125;0;;-999999;13;30930;0;1;980;31910;1;1;1;1;ProcFischi1;ListBlockFischi;49;1;1;0;2;5;Po8_B;100;4;ug;5;2;58;1;49;4;1;TrialProc;2330;1247;Po8_B;201;1782;1581;ListFischi1;0;;3;203;433853;15;15;1814;435667;246;1;1814;1;742;220;1568;1;1
TMS_Ibrahim;45;1;"<?xml version=""1.0""?>\n<Clock xmlns:dt=""urn:schemas-microsoft-com:datatypes""><Description dt:dt=""string"">E-Prime Primary Realtime Clock</Description><StartTime><Timestamp dt:dt=""int"">0</Timestamp><DateUtc dt:dt=""string"">2022-11-08T16:17:02Z</DateUtc></StartTime><FrequencyChanges><FrequencyChange><Frequency dt:dt=""r8"">3312871</Frequency><Timestamp dt:dt=""r8"">93160164484</Timestamp><Current dt:dt=""r8"">0</Current><DateUtc dt:dt=""string"">2022-11-08T16:17:02Z</DateUtc></FrequencyChange></FrequencyChanges></Clock>\n";TMS_Ibrahim-45-1;75.030;1.0.0.561;1;;-1328446689;2.0.10.242;2.0.10.242;11/08/2022;08/11/2022 16:17;17:17:02;2.0.10.147;0;;-999999;21;28370;0;1;1073;29443;1;1;1;2;1;0;1;BlockProcFischi;BlockList;1;125;0;;-999999;13;30930;0;1;980;31910;1;1;1;1;ProcFischi1;ListBlockFischi;50;1;1;1;0;5;Pomod_B;125;4;ug;5;2;63;1;50;4;1;TrialProc;1684;1311;Pomod_B;147;1818;1670;ListFischi1;0;;3;201;441308;10;15;1847;443155;87;1;1847;1;2488;319;1760;1;1
TMS_Ibrahim;45;1;"<?xml version=""1.0""?>\n<Clock xmlns:dt=""urn:schemas-microsoft-com:datatypes""><Description dt:dt=""string"">E-Prime Primary Realtime Clock</Description><StartTime><Timestamp dt:dt=""int"">0</Timestamp><DateUtc dt:dt=""string"">2022-11-08T16:17:02Z</DateUtc></StartTime><FrequencyChanges><FrequencyChange><Frequency dt:dt=""r8"">3312871</Frequency><Timestamp dt:dt=""r8"">93160164484</Timestamp><Current dt:dt=""r8"">0</Current><DateUtc dt:dt=""string"">2022-11-08T16:17:02Z</DateUtc></FrequencyChange></FrequencyChanges></Clock>\n";TMS_Ibrahim-45-1;75.030;1.0.0.561;1;;-1328446689;2.0.10.242;2.0.10.242;11/08/2022;08/11/2022 16:17;17:17:02;2.0.10.147;0;;-999999;21;28370;0;1;1073;29443;1;1;1;2;1;0;1;BlockProcFischi;BlockList;1;125;0;;-999999;13;30930;0;1;980;31910;1;1;1;1;ProcFischi1;ListBlockFischi;51;1;1;1;0;3;Pomod_B;100;2;op;3;2;48;1;51;2;0;TrialProc;3845;1313;Pomod_B;164;1839;1674;ListFischi1;0;;2;203;449822;13;13;1861;451683;197;1;1861;1;932;283;1664;1;1
TMS_Ibrahim;45;1;"<?xml version=""1.0""?>\n<Clock xmlns:dt=""urn:schemas-microsoft-com:datatypes""><Description dt:dt=""string"">E-Prime Primary Realtime Clock</Description><StartTime><Timestamp dt:dt=""int"">0</Timestamp><DateUtc dt:dt=""string"">2022-11-08T16:17:02Z</DateUtc></StartTime><FrequencyChanges><FrequencyChange><Frequency dt:dt=""r8"">3312871</Frequency><Timestamp dt:dt=""r8"">93160164484</Timestamp><Current dt:dt=""r8"">0</Current><DateUtc dt:dt=""string"">2022-11-08T16:17:02Z</DateUtc></FrequencyChange></FrequencyChanges></Clock>\n";TMS_Ibrahim-45-1;75.030;1.0.0.561;1;;-1328446689;2.0.10.242;2.0.10.242;11/08/2022;08/11/2022 16:17;17:17:02;2.0.10.147;0;;-999999;21;28370;0;1;1073;29443;1;1;1;2;1;0;1;BlockProcFischi;BlockList;1;125;0;;-999999;13;30930;0;1;980;31910;1;1;1;1;ProcFischi1;ListBlockFischi;52;1;2;1;1;3;Prmod_B;100;3;ug;3;2;32;1;52;3;1;TrialProc;2722;1307;Prmod_B;14;1655;1641;ListFischi1;0;;2;203;459558;6;13;1676;461234;140;1;1676;1;922;270;1536;1;1
TMS_Ibrahim;45;1;"<?xml version=""1.0""?>\n<Clock xmlns:dt=""urn:schemas-microsoft-com:datatypes""><Description dt:dt=""string"">E-Prime Primary Realtime Clock</Description><StartTime><Timestamp dt:dt=""int"">0</Timestamp><DateUtc dt:dt=""string"">2022-11-08T16:17:02Z</DateUtc></StartTime><FrequencyChanges><FrequencyChange><Frequency dt:dt=""r8"">3312871</Frequency><Timestamp dt:dt=""r8"">93160164484</Timestamp><Current dt:dt=""r8"">0</Current><DateUtc dt:dt=""string"">2022-11-08T16:17:02Z</DateUtc></FrequencyChange></FrequencyChanges></Clock>\n";TMS_Ibrahim-45-1;75.030;1.0.0.561;1;;-1328446689;2.0.10.242;2.0.10.242;11/08/2022;08/11/2022 16:17;17:17:02;2.0.10.147;0;;-999999;21;28370;0;1;1073;29443;1;1;1;2;1;0;1;BlockProcFischi;BlockList;1;125;0;;-999999;13;30930;0;1;980;31910;1;1;1;1;ProcFischi1;ListBlockFischi;53;1;1;0;1;3;Po4_B;100;2;op;3;2;40;1;53;2;0;TrialProc;2863;1340;Po4_B;217;1497;1714;ListFischi1;0;;2;203;468109;12;13;1525;469634;149;1;1525;1;856;521;1376;1;1
TMS_Ibrahim;45;1;"<?xml version=""1.0""?>\n<Clock xmlns:dt=""urn:schemas-microsoft-com:datatypes""><Description dt:dt=""string"">E-Prime Primary Realtime Clock</Description><StartTime><Timestamp dt:dt=""int"">0</Timestamp><DateUtc dt:dt=""string"">2022-11-08T16:17:02Z</DateUtc></StartTime><FrequencyChanges><FrequencyChange><Frequency dt:dt=""r8"">3312871</Frequency><Timestamp dt:dt=""r8"">93160164484</Timestamp><Current dt:dt=""r8"">0</Current><DateUtc dt:dt=""string"">2022-11-08T16:17:02Z</DateUtc></FrequencyChange></FrequencyChanges></Clock>\n";TMS_Ibrahim-45-1;75.030;1.0.0.561;1;;-1328446689;2.0.10.242;2.0.10.242;11/08/2022;08/11/2022 16:17;17:17:02;2.0.10.147;0;;-999999;21;28370;0;1;1073;29443;1;1;1;2;1;0;1;BlockProcFischi;BlockList;1;125;0;;-999999;13;30930;0;1;980;31910;1;1;1;1;ProcFischi1;ListBlockFischi;54;1;2;1;0;5;Prmod_B;175;1;op;5;2;16;1;54;1;0;TrialProc;2839;1320;Prmod_B;266;1918;1652;ListFischi1;0;;2;203;476006;19;15;1948;477954;220;1;1948;1;837;571;1728;1;1
TMS_Ibrahim;45;1;"<?xml version=""1.0""?>\n<Clock xmlns:dt=""urn:schemas-microsoft-com:datatypes""><Description dt:dt=""string"">E-Prime Primary Realtime Clock</Description><StartTime><Timestamp dt:dt=""int"">0</Timestamp><DateUtc dt:dt=""string"">2022-11-08T16:17:02Z</DateUtc></StartTime><FrequencyChanges><FrequencyChange><Frequency dt:dt=""r8"">3312871</Frequency><Timestamp dt:dt=""r8"">93160164484</Timestamp><Current dt:dt=""r8"">0</Current><DateUtc dt:dt=""string"">2022-11-08T16:17:02Z</DateUtc></FrequencyChange></FrequencyChanges></Clock>\n";TMS_Ibrahim-45-1;75.030;1.0.0.561;1;;-1328446689;2.0.10.242;2.0.10.242;11/08/2022;08/11/2022 16:17;17:17:02;2.0.10.147;0;;-999999;21;28370;0;1;1073;29443;1;1;1;2;1;0;1;BlockProcFischi;BlockList;1;125;0;;-999999;13;30930;0;1;980;31910;1;1;1;1;ProcFischi1;ListBlockFischi;55;1;2;0;1;5;Pr3_B;175;1;op;5;2;2;1;55;1;0;TrialProc;2555;712;Pr3_B;150;1562;1713;ListFischi1;0;;2;203;484143;12;15;1587;485730;243;1;1587;1;1180;427;1344;1;1
TMS_Ibrahim;45;1;"<?xml version=""1.0""?>\n<Clock xmlns:dt=""urn:schemas-microsoft-com:datatypes""><Description dt:dt=""string"">E-Prime Primary Realtime Clock</Description><StartTime><Timestamp dt:dt=""int"">0</Timestamp><DateUtc dt:dt=""string"">2022-11-08T16:17:02Z</DateUtc></StartTime><FrequencyChanges><FrequencyChange><Frequency dt:dt=""r8"">3312871</Frequency><Timestamp dt:dt=""r8"">93160164484</Timestamp><Current dt:dt=""r8"">0</Current><DateUtc dt:dt=""string"">2022-11-08T16:17:02Z</DateUtc></FrequencyChange></FrequencyChanges></Clock>\n";TMS_Ibrahim-45-1;75.030;1.0.0.561;1;;-1328446689;2.0.10.242;2.0.10.242;11/08/2022;08/11/2022 16:17;17:17:02;2.0.10.147;0;;-999999;21;28370;0;1;1073;29443;1;1;1;2;1;0;1;BlockProcFischi;BlockList;1;125;0;;-999999;13;30930;0;1;980;31910;1;1;1;1;ProcFischi1;ListBlockFischi;56;1;2;0;1;5;Pr3_B;175;1;op;5;2;12;1;56;1;0;TrialProc;1871;711;Pr3_B;120;1590;1710;ListFischi1;0;;2;203;493089;9;15;1616;494705;176;1;1616;1;1360;206;1440;1;1
TMS_Ibrahim;45;1;"<?xml version=""1.0""?>\n<Clock xmlns:dt=""urn:schemas-microsoft-com:datatypes""><Description dt:dt=""string"">E-Prime Primary Realtime Clock</Description><StartTime><Timestamp dt:dt=""int"">0</Timestamp><DateUtc dt:dt=""string"">2022-11-08T16:17:02Z</DateUtc></StartTime><FrequencyChanges><FrequencyChange><Frequency dt:dt=""r8"">3312871</Frequency><Timestamp dt:dt=""r8"">93160164484</Timestamp><Current dt:dt=""r8"">0</Current><DateUtc dt:dt=""string"">2022-11-08T16:17:02Z</DateUtc></FrequencyChange></FrequencyChanges></Clock>\n";TMS_Ibrahim-45-1;75.030;1.0.0.561;1;;-1328446689;2.0.10.242;2.0.10.242;11/08/2022;08/11/2022 16:17;17:17:02;2.0.10.147;0;;-999999;21;28370;0;1;1073;29443;1;1;1;2;1;0;1;BlockProcFischi;BlockList;1;125;0;;-999999;13;30930;0;1;980;31910;1;1;1;1;ProcFischi1;ListBlockFischi;57;1;1;1;0;5;Pomod_B;125;4;ug;5;2;64;1;57;4;1;TrialProc;1832;1309;Pomod_B;85;1753;1669;ListFischi1;0;;2;203;501634;7;15;1775;503409;223;1;1775;1;1232;453;1552;1;1
TMS_Ibrahim;45;1;"<?xml version=""1.0""?>\n<Clock xmlns:dt=""urn:schemas-microsoft-com:datatypes""><Description dt:dt=""string"">E-Prime Primary Realtime Clock</Description><StartTime><Timestamp dt:dt=""int"">0</Timestamp><DateUtc dt:dt=""string"">2022-11-08T16:17:02Z</DateUtc></StartTime><FrequencyChanges><FrequencyChange><Frequency dt:dt=""r8"">3312871</Frequency><Timestamp dt:dt=""r8"">93160164484</Timestamp><Current dt:dt=""r8"">0</Current><DateUtc dt:dt=""string"">2022-11-08T16:17:02Z</DateUtc></FrequencyChange></FrequencyChanges></Clock>\n";TMS_Ibrahim-45-1;75.030;1.0.0.561;1;;-1328446689;2.0.10.242;2.0.10.242;11/08/2022;08/11/2022 16:17;17:17:02;2.0.10.147;0;;-999999;21;28370;0;1;1073;29443;1;1;1;2;1;0;1;BlockProcFischi;BlockList;1;125;0;;-999999;13;30930;0;1;980;31910;1;1;1;1;ProcFischi1;ListBlockFischi;58;1;1;0;0;5;Po3_B;100;4;ug;5;2;50;1;58;4;1;TrialProc;1876;1313;Po3_B;72;1651;1579;ListFischi1;0;;2;203;510134;11;15;1675;511809;283;1;1675;1;880;577;1392;1;1
TMS_Ibrahim;45;1;"<?xml version=""1.0""?>\n<Clock xmlns:dt=""urn:schemas-microsoft-com:datatypes""><Description dt:dt=""string"">E-Prime Primary Realtime Clock</Description><StartTime><Timestamp dt:dt=""int"">0</Timestamp><DateUtc dt:dt=""string"">2022-11-08T16:17:02Z</DateUtc></StartTime><FrequencyChanges><FrequencyChange><Frequency dt:dt=""r8"">3312871</Frequency><Timestamp dt:dt=""r8"">93160164484</Timestamp><Current dt:dt=""r8"">0</Current><DateUtc dt:dt=""string"">2022-11-08T16:17:02Z</DateUtc></FrequencyChange></FrequencyChanges></Clock>\n";TMS_Ibrahim-45-1;75.030;1.0.0.561;1;;-1328446689;2.0.10.242;2.0.10.242;11/08/2022;08/11/2022 16:17;17:17:02;2.0.10.147;0;;-999999;21;28370;0;1;1073;29443;1;1;1;2;1;0;1;BlockProcFischi;BlockList;1;125;0;;-999999;13;30930;0;1;980;31910;1;1;1;1;ProcFischi1;ListBlockFischi;59;1;1;0;2;3;Po8_B;100;2;op;3;2;42;1;59;2;0;TrialProc;2023;1242;Po8_B;43;1532;1575;ListFischi1;0;;2;203;517948;7;1333;2629;520577;245;1;1557;1;2002;404;1312;1;1
TMS_Ibrahim;45;1;"<?xml version=""1.0""?>\n<Clock xmlns:dt=""urn:schemas-microsoft-com:datatypes""><Description dt:dt=""string"">E-Prime Primary Realtime Clock</Description><StartTime><Timestamp dt:dt=""int"">0</Timestamp><DateUtc dt:dt=""string"">2022-11-08T16:17:02Z</DateUtc></StartTime><FrequencyChanges><FrequencyChange><Frequency dt:dt=""r8"">3312871</Frequency><Timestamp dt:dt=""r8"">93160164484</Timestamp><Current dt:dt=""r8"">0</Current><DateUtc dt:dt=""string"">2022-11-08T16:17:02Z</DateUtc></FrequencyChange></FrequencyChanges></Clock>\n";TMS_Ibrahim-45-1;75.030;1.0.0.561;1;;-1328446689;2.0.10.242;2.0.10.242;11/08/2022;08/11/2022 16:17;17:17:02;2.0.10.147;0;;-999999;21;28370;0;1;1073;29443;1;1;1;2;1;0;1;BlockProcFischi;BlockList;1;125;0;;-999999;13;30930;0;1;980;31910;1;1;1;1;ProcFischi1;ListBlockFischi;60;1;1;0;0;3;Po3_B;75;2;op;3;2;34;1;60;2;0;TrialProc;2702;1307;Po3_B;226;1800;1574;ListFischi1;0;;2;203;526639;6;13;1825;528464;225;1;1825;1;1330;527;1600;1;1
TMS_Ibrahim;45;1;"<?xml version=""1.0""?>\n<Clock xmlns:dt=""urn:schemas-microsoft-com:datatypes""><Description dt:dt=""string"">E-Prime Primary Realtime Clock</Description><StartTime><Timestamp dt:dt=""int"">0</Timestamp><DateUtc dt:dt=""string"">2022-11-08T16:17:02Z</DateUtc></StartTime><FrequencyChanges><FrequencyChange><Frequency dt:dt=""r8"">3312871</Frequency><Timestamp dt:dt=""r8"">93160164484</Timestamp><Current dt:dt=""r8"">0</Current><DateUtc dt:dt=""string"">2022-11-08T16:17:02Z</DateUtc></FrequencyChange></FrequencyChanges></Clock>\n";TMS_Ibrahim-45-1;75.030;1.0.0.561;1;;-1328446689;2.0.10.242;2.0.10.242;11/08/2022;08/11/2022 16:17;17:17:02;2.0.10.147;0;;-999999;21;28370;0;1;1073;29443;1;1;1;2;1;0;1;BlockProcFischi;BlockList;1;125;0;;-999999;13;30930;0;1;980;31910;1;1;1;1;ProcFischi1;ListBlockFischi;61;1;2;0;0;3;Pr2_B;75;3;ug;3;2;22;1;61;3;1;TrialProc;2557;716;Pr2_B;4;1255;1250;ListFischi1;0;;2;203;534920;15;133;2440;537360;232;1;1288;1;932;219;1056;1;1
TMS_Ibrahim;45;1;"<?xml version=""1.0""?>\n<Clock xmlns:dt=""urn:schemas-microsoft-com:datatypes""><Description dt:dt=""string"">E-Prime Primary Realtime Clock</Description><StartTime><Timestamp dt:dt=""int"">0</Timestamp><DateUtc dt:dt=""string"">2022-11-08T16:17:02Z</DateUtc></StartTime><FrequencyChanges><FrequencyChange><Frequency dt:dt=""r8"">3312871</Frequency><Timestamp dt:dt=""r8"">93160164484</Timestamp><Current dt:dt=""r8"">0</Current><DateUtc dt:dt=""string"">2022-11-08T16:17:02Z</DateUtc></FrequencyChange></FrequencyChanges></Clock>\n";TMS_Ibrahim-45-1;75.030;1.0.0.561;1;;-1328446689;2.0.10.242;2.0.10.242;11/08/2022;08/11/2022 16:17;17:17:02;2.0.10.147;0;;-999999;21;28370;0;1;1073;29443;1;1;1;2;1;0;1;BlockProcFischi;BlockList;1;125;0;;-999999;13;30930;0;1;980;31910;1;1;1;1;ProcFischi1;ListBlockFischi;62;1;2;0;0;5;Pr8_B;150;1;op;5;2;5;1;62;1;0;TrialProc;2000;716;Pr8_B;64;1805;1741;ListFischi1;0;;2;203;543226;12;1551;4438;547664;102;1;1830;1;1088;540;1728;1;1
TMS_Ibrahim;45;1;"<?xml version=""1.0""?>\n<Clock xmlns:dt=""urn:schemas-microsoft-com:datatypes""><Description dt:dt=""string"">E-Prime Primary Realtime Clock</Description><StartTime><Timestamp dt:dt=""int"">0</Timestamp><DateUtc dt:dt=""string"">2022-11-08T16:17:02Z</DateUtc></StartTime><FrequencyChanges><FrequencyChange><Frequency dt:dt=""r8"">3312871</Frequency><Timestamp dt:dt=""r8"">93160164484</Timestamp><Current dt:dt=""r8"">0</Current><DateUtc dt:dt=""string"">2022-11-08T16:17:02Z</DateUtc></FrequencyChange></FrequencyChanges></Clock>\n";TMS_Ibrahim-45-1;75.030;1.0.0.561;1;;-1328446689;2.0.10.242;2.0.10.242;11/08/2022;08/11/2022 16:17;17:17:02;2.0.10.147;0;;-999999;21;28370;0;1;1073;29443;1;1;1;2;1;0;1;BlockProcFischi;BlockList;1;125;0;;-999999;13;30930;0;1;980;31910;1;1;1;1;ProcFischi1;ListBlockFischi;63;1;1;0;1;3;Po5_B;75;2;op;3;2;41;1;63;2;0;TrialProc;1243;984;Po5_B;39;1438;1476;ListFischi1;0;;2;203;551314;15;13;1470;552784;270;1;1470;1;1516;578;1200;1;1
TMS_Ibrahim;45;1;"<?xml version=""1.0""?>\n<Clock xmlns:dt=""urn:schemas-microsoft-com:datatypes""><Description dt:dt=""string"">E-Prime Primary Realtime Clock</Description><StartTime><Timestamp dt:dt=""int"">0</Timestamp><DateUtc dt:dt=""string"">2022-11-08T16:17:02Z</DateUtc></StartTime><FrequencyChanges><FrequencyChange><Frequency dt:dt=""r8"">3312871</Frequency><Timestamp dt:dt=""r8"">93160164484</Timestamp><Current dt:dt=""r8"">0</Current><DateUtc dt:dt=""string"">2022-11-08T16:17:02Z</DateUtc></FrequencyChange></FrequencyChanges></Clock>\n";TMS_Ibrahim-45-1;75.030;1.0.0.561;1;;-1328446689;2.0.10.242;2.0.10.242;11/08/2022;08/11/2022 16:17;17:17:02;2.0.10.147;0;;-999999;21;28370;0;1;1073;29443;1;1;1;2;1;0;1;BlockProcFischi;BlockList;1;125;0;;-999999;13;30930;0;1;980;31910;1;1;1;1;ProcFischi1;ListBlockFischi;64;1;2;0;0;5;Pr5_B;125;1;op;5;2;9;1;64;1;0;TrialProc;3109;673;Pr5_B;168;1439;1272;ListFischi1;0;;2;203;560487;11;155;2056;562543;136;1;1464;1;828;362;1328;1;1
TMS_Ibrahim;45;3;"<?xml version=""1.0""?>\n<Clock xmlns:dt=""urn:schemas-microsoft-com:datatypes""><Description dt:dt=""string"">E-Prime Primary Realtime Clock</Description><StartTime><Timestamp dt:dt=""int"">0</Timestamp><DateUtc dt:dt=""string"">2022-11-08T17:16:51Z</DateUtc></StartTime><FrequencyChanges><FrequencyChange><Frequency dt:dt=""r8"">3312871</Frequency><Timestamp dt:dt=""r8"">105052322377</Timestamp><Current dt:dt=""r8"">0</Current><DateUtc dt:dt=""string"">2022-11-08T17:16:51Z</DateUtc></FrequencyChange></FrequencyChanges></Clock>\n";TMS_Ibrahim-45-3;75.030;1.0.0.561;1;;1973743077;2.0.10.242;2.0.10.242;11/08/2022;08/11/2022 17:16;18:16:52;2.0.10.147;0;;-999999;25;19098;0;1;1074;20172;1;1;1;2;1;0;1;BlockProcFischi;BlockList;1;75;0;;-999999;13;21985;0;1;1254;23239;1;1;1;1;ProcFischi1;ListBlockFischi;1;1;1;0;0;3;Po3_B;250;2;op;3;2;34;1;1;2;0;TrialProc;2188;1337;Po3_B;4;1600;1603;ListFischi1;0;;5;210;26401;24;13;1624;28025;441;1;1624;1;689;309;1183;1;1
TMS_Ibrahim;45;3;"<?xml version=""1.0""?>\n<Clock xmlns:dt=""urn:schemas-microsoft-com:datatypes""><Description dt:dt=""string"">E-Prime Primary Realtime Clock</Description><StartTime><Timestamp dt:dt=""int"">0</Timestamp><DateUtc dt:dt=""string"">2022-11-08T17:16:51Z</DateUtc></StartTime><FrequencyChanges><FrequencyChange><Frequency dt:dt=""r8"">3312871</Frequency><Timestamp dt:dt=""r8"">105052322377</Timestamp><Current dt:dt=""r8"">0</Current><DateUtc dt:dt=""string"">2022-11-08T17:16:51Z</DateUtc></FrequencyChange></FrequencyChanges></Clock>\n";TMS_Ibrahim-45-3;75.030;1.0.0.561;1;;1973743077;2.0.10.242;2.0.10.242;11/08/2022;08/11/2022 17:16;18:16:52;2.0.10.147;0;;-999999;25;19098;0;1;1074;20172;1;1;1;2;1;0;1;BlockProcFischi;BlockList;1;75;0;;-999999;13;21985;0;1;1254;23239;1;1;1;1;ProcFischi1;ListBlockFischi;2;1;2;0;0;5;Pr8_B;250;1;op;5;2;5;1;2;1;0;TrialProc;2948;708;Pr8_B;60;1795;1735;ListFischi1;0;;2;201;34362;7;15;1823;36185;79;1;1823;1;750;485;1744;1;1
TMS_Ibrahim;45;3;"<?xml version=""1.0""?>\n<Clock xmlns:dt=""urn:schemas-microsoft-com:datatypes""><Description dt:dt=""string"">E-Prime Primary Realtime Clock</Description><StartTime><Timestamp dt:dt=""int"">0</Timestamp><DateUtc dt:dt=""string"">2022-11-08T17:16:51Z</DateUtc></StartTime><FrequencyChanges><FrequencyChange><Frequency dt:dt=""r8"">3312871</Frequency><Timestamp dt:dt=""r8"">105052322377</Timestamp><Current dt:dt=""r8"">0</Current><DateUtc dt:dt=""string"">2022-11-08T17:16:51Z</DateUtc></FrequencyChange></FrequencyChanges></Clock>\n";TMS_Ibrahim-45-3;75.030;1.0.0.561;1;;1973743077;2.0.10.242;2.0.10.242;11/08/2022;08/11/2022 17:16;18:16:52;2.0.10.147;0;;-999999;25;19098;0;1;1074;20172;1;1;1;2;1;0;1;BlockProcFischi;BlockList;1;75;0;;-999999;13;21985;0;1;1254;23239;1;1;1;1;ProcFischi1;ListBlockFischi;3;1;2;0;0;3;Pr3_B;250;3;ug;3;2;23;1;3;3;1;TrialProc;2197;710;Pr3_B;206;1504;1710;ListFischi1;0;;2;203;42798;8;133;2058;44856;219;1;1531;1;606;272;1312;1;1
TMS_Ibrahim;45;3;"<?xml version=""1.0""?>\n<Clock xmlns:dt=""urn:schemas-microsoft-com:datatypes""><Description dt:dt=""string"">E-Prime Primary Realtime Clock</Description><StartTime><Timestamp dt:dt=""int"">0</Timestamp><DateUtc dt:dt=""string"">2022-11-08T17:16:51Z</DateUtc></StartTime><FrequencyChanges><FrequencyChange><Frequency dt:dt=""r8"">3312871</Frequency><Timestamp dt:dt=""r8"">105052322377</Timestamp><Current dt:dt=""r8"">0</Current><DateUtc dt:dt=""string"">2022-11-08T17:16:51Z</DateUtc></FrequencyChange></FrequencyChanges></Clock>\n";TMS_Ibrahim-45-3;75.030;1.0.0.561;1;;1973743077;2.0.10.242;2.0.10.242;11/08/2022;08/11/2022 17:16;18:16:52;2.0.10.147;0;;-999999;25;19098;0;1;1074;20172;1;1;1;2;1;0;1;BlockProcFischi;BlockList;1;75;0;;-999999;13;21985;0;1;1254;23239;1;1;1;1;ProcFischi1;ListBlockFischi;4;0;2;0;0;5;Pr4_B;;1;op;3;2;3;1;4;1;0;TrialProc;2550;667;Pr4_B;59;1300;1240;ListFischi1;0;;2;203;50623;6;13;1321;51944;233;1;1321;1;518;559;1088;1;0
TMS_Ibrahim;45;3;"<?xml version=""1.0""?>\n<Clock xmlns:dt=""urn:schemas-microsoft-com:datatypes""><Description dt:dt=""string"">E-Prime Primary Realtime Clock</Description><StartTime><Timestamp dt:dt=""int"">0</Timestamp><DateUtc dt:dt=""string"">2022-11-08T17:16:51Z</DateUtc></StartTime><FrequencyChanges><FrequencyChange><Frequency dt:dt=""r8"">3312871</Frequency><Timestamp dt:dt=""r8"">105052322377</Timestamp><Current dt:dt=""r8"">0</Current><DateUtc dt:dt=""string"">2022-11-08T17:16:51Z</DateUtc></FrequencyChange></FrequencyChanges></Clock>\n";TMS_Ibrahim-45-3;75.030;1.0.0.561;1;;1973743077;2.0.10.242;2.0.10.242;11/08/2022;08/11/2022 17:16;18:16:52;2.0.10.147;0;;-999999;25;19098;0;1;1074;20172;1;1;1;2;1;0;1;BlockProcFischi;BlockList;1;75;0;;-999999;13;21985;0;1;1254;23239;1;1;1;1;ProcFischi1;ListBlockFischi;5;1;1;0;0;5;Po3_B;250;4;ug;5;2;60;1;5;4;1;TrialProc;3619;1312;Po3_B;107;1471;1579;ListFischi1;0;;2;203;59535;11;15;1497;61032;156;1;1497;1;574;511;1341;1;1
TMS_Ibrahim;45;3;"<?xml version=""1.0""?>\n<Clock xmlns:dt=""urn:schemas-microsoft-com:datatypes""><Description dt:dt=""string"">E-Prime Primary Realtime Clock</Description><StartTime><Timestamp dt:dt=""int"">0</Timestamp><DateUtc dt:dt=""string"">2022-11-08T17:16:51Z</DateUtc></StartTime><FrequencyChanges><FrequencyChange><Frequency dt:dt=""r8"">3312871</Frequency><Timestamp dt:dt=""r8"">105052322377</Timestamp><Current dt:dt=""r8"">0</Current><DateUtc dt:dt=""string"">2022-11-08T17:16:51Z</DateUtc></FrequencyChange></FrequencyChanges></Clock>\n";TMS_Ibrahim-45-3;75.030;1.0.0.561;1;;1973743077;2.0.10.242;2.0.10.242;11/08/2022;08/11/2022 17:16;18:16:52;2.0.10.147;0;;-999999;25;19098;0;1;1074;20172;1;1;1;2;1;0;1;BlockProcFischi;BlockList;1;75;0;;-999999;13;21985;0;1;1254;23239;1;1;1;1;ProcFischi1;ListBlockFischi;6;1;1;0;0;5;Po2_B;225;4;ug;5;2;54;1;6;4;1;TrialProc;3417;1578;Po2_B;266;1538;1805;ListFischi1;0;;2;203;68904;11;15;1568;70472;240;1;1568;1;511;366;1328;1;1
TMS_Ibrahim;45;3;"<?xml version=""1.0""?>\n<Clock xmlns:dt=""urn:schemas-microsoft-com:datatypes""><Description dt:dt=""string"">E-Prime Primary Realtime Clock</Description><StartTime><Timestamp dt:dt=""int"">0</Timestamp><DateUtc dt:dt=""string"">2022-11-08T17:16:51Z</DateUtc></StartTime><FrequencyChanges><FrequencyChange><Frequency dt:dt=""r8"">3312871</Frequency><Timestamp dt:dt=""r8"">105052322377</Timestamp><Current dt:dt=""r8"">0</Current><DateUtc dt:dt=""string"">2022-11-08T17:16:51Z</DateUtc></FrequencyChange></FrequencyChanges></Clock>\n";TMS_Ibrahim-45-3;75.030;1.0.0.561;1;;1973743077;2.0.10.242;2.0.10.242;11/08/2022;08/11/2022 17:16;18:16:52;2.0.10.147;0;;-999999;25;19098;0;1;1074;20172;1;1;1;2;1;0;1;BlockProcFischi;BlockList;1;75;0;;-999999;13;21985;0;1;1254;23239;1;1;1;1;ProcFischi1;ListBlockFischi;7;1;1;0;0;3;Po3_B;225;2;op;3;2;44;1;7;2;0;TrialProc;2011;1311;Po3_B;92;1485;1577;ListFischi1;0;;2;203;78503;9;13;1504;80007;128;1;1504;1;1000;419;1376;1;1
TMS_Ibrahim;45;3;"<?xml version=""1.0""?>\n<Clock xmlns:dt=""urn:schemas-microsoft-com:datatypes""><Description dt:dt=""string"">E-Prime Primary Realtime Clock</Description><StartTime><Timestamp dt:dt=""int"">0</Timestamp><DateUtc dt:dt=""string"">2022-11-08T17:16:51Z</DateUtc></StartTime><FrequencyChanges><FrequencyChange><Frequency dt:dt=""r8"">3312871</Frequency><Timestamp dt:dt=""r8"">105052322377</Timestamp><Current dt:dt=""r8"">0</Current><DateUtc dt:dt=""string"">2022-11-08T17:16:51Z</DateUtc></FrequencyChange></FrequencyChanges></Clock>\n";TMS_Ibrahim-45-3;75.030;1.0.0.561;1;;1973743077;2.0.10.242;2.0.10.242;11/08/2022;08/11/2022 17:16;18:16:52;2.0.10.147;0;;-999999;25;19098;0;1;1074;20172;1;1;1;2;1;0;1;BlockProcFischi;BlockList;1;75;0;;-999999;13;21985;0;1;1254;23239;1;1;1;1;ProcFischi1;ListBlockFischi;8;1;2;1;0;5;Prmod_B;225;1;op;5;2;16;1;8;1;0;TrialProc;2252;1314;Prmod_B;22;1669;1648;ListFischi1;0;;2;203;86962;13;15;1701;88663;197;1;1701;1;701;568;1504;1;1
TMS_Ibrahim;45;3;"<?xml version=""1.0""?>\n<Clock xmlns:dt=""urn:schemas-microsoft-com:datatypes""><Description dt:dt=""string"">E-Prime Primary Realtime Clock</Description><StartTime><Timestamp dt:dt=""int"">0</Timestamp><DateUtc dt:dt=""string"">2022-11-08T17:16:51Z</DateUtc></StartTime><FrequencyChanges><FrequencyChange><Frequency dt:dt=""r8"">3312871</Frequency><Timestamp dt:dt=""r8"">105052322377</Timestamp><Current dt:dt=""r8"">0</Current><DateUtc dt:dt=""string"">2022-11-08T17:16:51Z</DateUtc></FrequencyChange></FrequencyChanges></Clock>\n";TMS_Ibrahim-45-3;75.030;1.0.0.561;1;;1973743077;2.0.10.242;2.0.10.242;11/08/2022;08/11/2022 17:16;18:16:52;2.0.10.147;0;;-999999;25;19098;0;1;1074;20172;1;1;1;2;1;0;1;BlockProcFischi;BlockList;1;75;0;;-999999;13;21985;0;1;1254;23239;1;1;1;1;ProcFischi1;ListBlockFischi;9;1;1;0;1;5;Po2_B;225;4;ug;5;2;59;1;9;4;1;TrialProc;2965;1581;Po2_B;227;1581;1809;ListFischi1;0;;2;203;94772;13;15;1603;96375;211;1;1603;1;634;250;1392;1;1
TMS_Ibrahim;45;3;"<?xml version=""1.0""?>\n<Clock xmlns:dt=""urn:schemas-microsoft-com:datatypes""><Description dt:dt=""string"">E-Prime Primary Realtime Clock</Description><StartTime><Timestamp dt:dt=""int"">0</Timestamp><DateUtc dt:dt=""string"">2022-11-08T17:16:51Z</DateUtc></StartTime><FrequencyChanges><FrequencyChange><Frequency dt:dt=""r8"">3312871</Frequency><Timestamp dt:dt=""r8"">105052322377</Timestamp><Current dt:dt=""r8"">0</Current><DateUtc dt:dt=""string"">2022-11-08T17:16:51Z</DateUtc></FrequencyChange></FrequencyChanges></Clock>\n";TMS_Ibrahim-45-3;75.030;1.0.0.561;1;;1973743077;2.0.10.242;2.0.10.242;11/08/2022;08/11/2022 17:16;18:16:52;2.0.10.147;0;;-999999;25;19098;0;1;1074;20172;1;1;1;2;1;0;1;BlockProcFischi;BlockList;1;75;0;;-999999;13;21985;0;1;1254;23239;1;1;1;1;ProcFischi1;ListBlockFischi;10;1;1;0;0;3;Po5_B;200;2;op;3;2;36;1;10;2;0;TrialProc;3018;987;Po5_B;132;1347;1479;ListFischi1;0;;2;203;103192;17;13;1375;104567;95;1;1375;1;563;412;1280;1;1
TMS_Ibrahim;45;3;"<?xml version=""1.0""?>\n<Clock xmlns:dt=""urn:schemas-microsoft-com:datatypes""><Description dt:dt=""string"">E-Prime Primary Realtime Clock</Description><StartTime><Timestamp dt:dt=""int"">0</Timestamp><DateUtc dt:dt=""string"">2022-11-08T17:16:51Z</DateUtc></StartTime><FrequencyChanges><FrequencyChange><Frequency dt:dt=""r8"">3312871</Frequency><Timestamp dt:dt=""r8"">105052322377</Timestamp><Current dt:dt=""r8"">0</Current><DateUtc dt:dt=""string"">2022-11-08T17:16:51Z</DateUtc></FrequencyChange></FrequencyChanges></Clock>\n";TMS_Ibrahim-45-3;75.030;1.0.0.561;1;;1973743077;2.0.10.242;2.0.10.242;11/08/2022;08/11/2022 17:16;18:16:52;2.0.10.147;0;;-999999;25;19098;0;1;1074;20172;1;1;1;2;1;0;1;BlockProcFischi;BlockList;1;75;0;;-999999;13;21985;0;1;1254;23239;1;1;1;1;ProcFischi1;ListBlockFischi;11;1;2;0;0;5;Pr8_B;200;1;op;5;2;10;1;11;1;0;TrialProc;2391;717;Pr8_B;99;1644;1744;ListFischi1;0;;2;203;111603;16;15;1667;113270;195;1;1667;1;1055;353;1472;1;1
TMS_Ibrahim;45;3;"<?xml version=""1.0""?>\n<Clock xmlns:dt=""urn:schemas-microsoft-com:datatypes""><Description dt:dt=""string"">E-Prime Primary Realtime Clock</Description><StartTime><Timestamp dt:dt=""int"">0</Timestamp><DateUtc dt:dt=""string"">2022-11-08T17:16:51Z</DateUtc></StartTime><FrequencyChanges><FrequencyChange><Frequency dt:dt=""r8"">3312871</Frequency><Timestamp dt:dt=""r8"">105052322377</Timestamp><Current dt:dt=""r8"">0</Current><DateUtc dt:dt=""string"">2022-11-08T17:16:51Z</DateUtc></FrequencyChange></FrequencyChanges></Clock>\n";TMS_Ibrahim-45-3;75.030;1.0.0.561;1;;1973743077;2.0.10.242;2.0.10.242;11/08/2022;08/11/2022 17:16;18:16:52;2.0.10.147;0;;-999999;25;19098;0;1;1074;20172;1;1;1;2;1;0;1;BlockProcFischi;BlockList;1;75;0;;-999999;13;21985;0;1;1254;23239;1;1;1;1;ProcFischi1;ListBlockFischi;12;1;2;1;0;5;Prmod_B;175;1;op;5;2;15;1;12;1;0;TrialProc;3616;1312;Prmod_B;194;1838;1644;ListFischi1;0;;2;203;120152;10;15;1870;122022;159;1;1870;1;1019;387;1711;1;1
TMS_Ibrahim;45;3;"<?xml version=""1.0""?>\n<Clock xmlns:dt=""urn:schemas-microsoft-com:datatypes""><Description dt:dt=""string"">E-Prime Primary Realtime Clock</Description><StartTime><Timestamp dt:dt=""int"">0</Timestamp><DateUtc dt:dt=""string"">2022-11-08T17:16:51Z</DateUtc></StartTime><FrequencyChanges><FrequencyChange><Frequency dt:dt=""r8"">3312871</Frequency><Timestamp dt:dt=""r8"">105052322377</Timestamp><Current dt:dt=""r8"">0</Current><DateUtc dt:dt=""string"">2022-11-08T17:16:51Z</DateUtc></FrequencyChange></FrequencyChanges></Clock>\n";TMS_Ibrahim-45-3;75.030;1.0.0.561;1;;1973743077;2.0.10.242;2.0.10.242;11/08/2022;08/11/2022 17:16;18:16:52;2.0.10.147;0;;-999999;25;19098;0;1;1074;20172;1;1;1;2;1;0;1;BlockProcFischi;BlockList;1;75;0;;-999999;13;21985;0;1;1254;23239;1;1;1;1;ProcFischi1;ListBlockFischi;13;1;1;0;0;3;Po5_B;175;2;op;3;2;41;1;13;2;0;TrialProc;2238;986;Po5_B;64;1415;1480;ListFischi1;0;;2;203;130555;16;13;1435;131990;139;1;1435;1;2140;576;1296;1;1
TMS_Ibrahim;45;3;"<?xml version=""1.0""?>\n<Clock xmlns:dt=""urn:schemas-microsoft-com:datatypes""><Description dt:dt=""string"">E-Prime Primary Realtime Clock</Description><StartTime><Timestamp dt:dt=""int"">0</Timestamp><DateUtc dt:dt=""string"">2022-11-08T17:16:51Z</DateUtc></StartTime><FrequencyChanges><FrequencyChange><Frequency dt:dt=""r8"">3312871</Frequency><Timestamp dt:dt=""r8"">105052322377</Timestamp><Current dt:dt=""r8"">0</Current><DateUtc dt:dt=""string"">2022-11-08T17:16:51Z</DateUtc></FrequencyChange></FrequencyChanges></Clock>\n";TMS_Ibrahim-45-3;75.030;1.0.0.561;1;;1973743077;2.0.10.242;2.0.10.242;11/08/2022;08/11/2022 17:16;18:16:52;2.0.10.147;0;;-999999;25;19098;0;1;1074;20172;1;1;1;2;1;0;1;BlockProcFischi;BlockList;1;75;0;;-999999;13;21985;0;1;1254;23239;1;1;1;1;ProcFischi1;ListBlockFischi;14;1;2;0;0;5;Pr5_B;175;1;op;5;2;14;1;14;1;0;TrialProc;2170;678;Pr5_B;347;1625;1277;ListFischi1;0;;2;203;139180;15;15;1657;140837;217;1;1657;1;1262;529;1440;1;1
TMS_Ibrahim;45;3;"<?xml version=""1.0""?>\n<Clock xmlns:dt=""urn:schemas-microsoft-com:datatypes""><Description dt:dt=""string"">E-Prime Primary Realtime Clock</Description><StartTime><Timestamp dt:dt=""int"">0</Timestamp><DateUtc dt:dt=""string"">2022-11-08T17:16:51Z</DateUtc></StartTime><FrequencyChanges><FrequencyChange><Frequency dt:dt=""r8"">3312871</Frequency><Timestamp dt:dt=""r8"">105052322377</Timestamp><Current dt:dt=""r8"">0</Current><DateUtc dt:dt=""string"">2022-11-08T17:16:51Z</DateUtc></FrequencyChange></FrequencyChanges></Clock>\n";TMS_Ibrahim-45-3;75.030;1.0.0.561;1;;1973743077;2.0.10.242;2.0.10.242;11/08/2022;08/11/2022 17:16;18:16:52;2.0.10.147;0;;-999999;25;19098;0;1;1074;20172;1;1;1;2;1;0;1;BlockProcFischi;BlockList;1;75;0;;-999999;13;21985;0;1;1254;23239;1;1;1;1;ProcFischi1;ListBlockFischi;15;1;1;0;0;3;Po8_B;150;2;op;3;2;37;1;15;2;0;TrialProc;2318;1252;Po8_B;125;1461;1585;ListFischi1;0;;2;203;147040;18;13;1493;148533;53;1;1493;1;1183;410;1440;1;1
TMS_Ibrahim;45;3;"<?xml version=""1.0""?>\n<Clock xmlns:dt=""urn:schemas-microsoft-com:datatypes""><Description dt:dt=""string"">E-Prime Primary Realtime Clock</Description><StartTime><Timestamp dt:dt=""int"">0</Timestamp><DateUtc dt:dt=""string"">2022-11-08T17:16:51Z</DateUtc></StartTime><FrequencyChanges><FrequencyChange><Frequency dt:dt=""r8"">3312871</Frequency><Timestamp dt:dt=""r8"">105052322377</Timestamp><Current dt:dt=""r8"">0</Current><DateUtc dt:dt=""string"">2022-11-08T17:16:51Z</DateUtc></FrequencyChange></FrequencyChanges></Clock>\n";TMS_Ibrahim-45-3;75.030;1.0.0.561;1;;1973743077;2.0.10.242;2.0.10.242;11/08/2022;08/11/2022 17:16;18:16:52;2.0.10.147;0;;-999999;25;19098;0;1;1074;20172;1;1;1;2;1;0;1;BlockProcFischi;BlockList;1;75;0;;-999999;13;21985;0;1;1254;23239;1;1;1;1;ProcFischi1;ListBlockFischi;16;0;2;0;0;3;Pr5_B;;3;ug;5;2;25;1;16;3;1;TrialProc;2156;675;Pr5_B;184;1459;1276;ListFischi1;0;;2;203;155109;13;15;1488;156597;192;1;1488;1;695;569;1296;1;0
TMS_Ibrahim;45;3;"<?xml version=""1.0""?>\n<Clock xmlns:dt=""urn:schemas-microsoft-com:datatypes""><Description dt:dt=""string"">E-Prime Primary Realtime Clock</Description><StartTime><Timestamp dt:dt=""int"">0</Timestamp><DateUtc dt:dt=""string"">2022-11-08T17:16:51Z</DateUtc></StartTime><FrequencyChanges><FrequencyChange><Frequency dt:dt=""r8"">3312871</Frequency><Timestamp dt:dt=""r8"">105052322377</Timestamp><Current dt:dt=""r8"">0</Current><DateUtc dt:dt=""string"">2022-11-08T17:16:51Z</DateUtc></FrequencyChange></FrequencyChanges></Clock>\n";TMS_Ibrahim-45-3;75.030;1.0.0.561;1;;1973743077;2.0.10.242;2.0.10.242;11/08/2022;08/11/2022 17:16;18:16:52;2.0.10.147;0;;-999999;25;19098;0;1;1074;20172;1;1;1;2;1;0;1;BlockProcFischi;BlockList;1;75;0;;-999999;13;21985;0;1;1254;23239;1;1;1;1;ProcFischi1;ListBlockFischi;17;1;1;1;0;3;Pomod_B;150;2;op;3;2;47;1;17;2;0;TrialProc;2038;1317;Pomod_B;98;1776;1677;ListFischi1;0;;2;201;162995;17;13;1810;164805;370;1;1810;1;584;445;1440;1;1
TMS_Ibrahim;45;3;"<?xml version=""1.0""?>\n<Clock xmlns:dt=""urn:schemas-microsoft-com:datatypes""><Description dt:dt=""string"">E-Prime Primary Realtime Clock</Description><StartTime><Timestamp dt:dt=""int"">0</Timestamp><DateUtc dt:dt=""string"">2022-11-08T17:16:51Z</DateUtc></StartTime><FrequencyChanges><FrequencyChange><Frequency dt:dt=""r8"">3312871</Frequency><Timestamp dt:dt=""r8"">105052322377</Timestamp><Current dt:dt=""r8"">0</Current><DateUtc dt:dt=""string"">2022-11-08T17:16:51Z</DateUtc></FrequencyChange></FrequencyChanges></Clock>\n";TMS_Ibrahim-45-3;75.030;1.0.0.561;1;;1973743077;2.0.10.242;2.0.10.242;11/08/2022;08/11/2022 17:16;18:16:52;2.0.10.147;0;;-999999;25;19098;0;1;1074;20172;1;1;1;2;1;0;1;BlockProcFischi;BlockList;1;75;0;;-999999;13;21985;0;1;1254;23239;1;1;1;1;ProcFischi1;ListBlockFischi;18;1;2;1;0;3;Prmod_B;225;3;ug;3;2;32;1;18;3;1;TrialProc;2822;1311;Prmod_B;19;1625;1644;ListFischi1;0;;2;203;171387;9;133;2105;173492;281;1;1657;1;431;477;1376;1;1
TMS_Ibrahim;45;3;"<?xml version=""1.0""?>\n<Clock xmlns:dt=""urn:schemas-microsoft-com:datatypes""><Description dt:dt=""string"">E-Prime Primary Realtime Clock</Description><StartTime><Timestamp dt:dt=""int"">0</Timestamp><DateUtc dt:dt=""string"">2022-11-08T17:16:51Z</DateUtc></StartTime><FrequencyChanges><FrequencyChange><Frequency dt:dt=""r8"">3312871</Frequency><Timestamp dt:dt=""r8"">105052322377</Timestamp><Current dt:dt=""r8"">0</Current><DateUtc dt:dt=""string"">2022-11-08T17:16:51Z</DateUtc></FrequencyChange></FrequencyChanges></Clock>\n";TMS_Ibrahim-45-3;75.030;1.0.0.561;1;;1973743077;2.0.10.242;2.0.10.242;11/08/2022;08/11/2022 17:16;18:16:52;2.0.10.147;0;;-999999;25;19098;0;1;1074;20172;1;1;1;2;1;0;1;BlockProcFischi;BlockList;1;75;0;;-999999;13;21985;0;1;1254;23239;1;1;1;1;ProcFischi1;ListBlockFischi;19;1;1;0;1;5;Po2_B;225;4;ug;5;2;49;1;19;4;1;TrialProc;3124;1576;Po2_B;216;1586;1803;ListFischi1;0;;2;203;179092;7;155;2352;181444;320;1;1616;1;886;514;1296;1;1
TMS_Ibrahim;45;3;"<?xml version=""1.0""?>\n<Clock xmlns:dt=""urn:schemas-microsoft-com:datatypes""><Description dt:dt=""string"">E-Prime Primary Realtime Clock</Description><StartTime><Timestamp dt:dt=""int"">0</Timestamp><DateUtc dt:dt=""string"">2022-11-08T17:16:51Z</DateUtc></StartTime><FrequencyChanges><FrequencyChange><Frequency dt:dt=""r8"">3312871</Frequency><Timestamp dt:dt=""r8"">105052322377</Timestamp><Current dt:dt=""r8"">0</Current><DateUtc dt:dt=""string"">2022-11-08T17:16:51Z</DateUtc></FrequencyChange></FrequencyChanges></Clock>\n";TMS_Ibrahim-45-3;75.030;1.0.0.561;1;;1973743077;2.0.10.242;2.0.10.242;11/08/2022;08/11/2022 17:16;18:16:52;2.0.10.147;0;;-999999;25;19098;0;1;1074;20172;1;1;1;2;1;0;1;BlockProcFischi;BlockList;1;75;0;;-999999;13;21985;0;1;1254;23239;1;1;1;1;ProcFischi1;ListBlockFischi;20;1;1;0;0;3;Po2_B;125;2;op;3;2;38;1;20;2;0;TrialProc;1841;1581;Po2_B;198;1609;1807;ListFischi1;0;;2;203;187643;13;13;1641;189284;89;1;1641;1;1088;263;1552;1;1
TMS_Ibrahim;45;3;"<?xml version=""1.0""?>\n<Clock xmlns:dt=""urn:schemas-microsoft-com:datatypes""><Description dt:dt=""string"">E-Prime Primary Realtime Clock</Description><StartTime><Timestamp dt:dt=""int"">0</Timestamp><DateUtc dt:dt=""string"">2022-11-08T17:16:51Z</DateUtc></StartTime><FrequencyChanges><FrequencyChange><Frequency dt:dt=""r8"">3312871</Frequency><Timestamp dt:dt=""r8"">105052322377</Timestamp><Current dt:dt=""r8"">0</Current><DateUtc dt:dt=""string"">2022-11-08T17:16:51Z</DateUtc></FrequencyChange></FrequencyChanges></Clock>\n";TMS_Ibrahim-45-3;75.030;1.0.0.561;1;;1973743077;2.0.10.242;2.0.10.242;11/08/2022;08/11/2022 17:16;18:16:52;2.0.10.147;0;;-999999;25;19098;0;1;1074;20172;1;1;1;2;1;0;1;BlockProcFischi;BlockList;1;75;0;;-999999;13;21985;0;1;1254;23239;1;1;1;1;ProcFischi1;ListBlockFischi;21;1;1;0;1;3;Po3_B;125;2;op;3;2;39;1;21;2;0;TrialProc;2510;1310;Po3_B;10;1567;1576;ListFischi1;0;;1;201;194912;8;13;1588;196500;180;1;1588;1;613;582;1408;1;1
TMS_Ibrahim;45;3;"<?xml version=""1.0""?>\n<Clock xmlns:dt=""urn:schemas-microsoft-com:datatypes""><Description dt:dt=""string"">E-Prime Primary Realtime Clock</Description><StartTime><Timestamp dt:dt=""int"">0</Timestamp><DateUtc dt:dt=""string"">2022-11-08T17:16:51Z</DateUtc></StartTime><FrequencyChanges><FrequencyChange><Frequency dt:dt=""r8"">3312871</Frequency><Timestamp dt:dt=""r8"">105052322377</Timestamp><Current dt:dt=""r8"">0</Current><DateUtc dt:dt=""string"">2022-11-08T17:16:51Z</DateUtc></FrequencyChange></FrequencyChanges></Clock>\n";TMS_Ibrahim-45-3;75.030;1.0.0.561;1;;1973743077;2.0.10.242;2.0.10.242;11/08/2022;08/11/2022 17:16;18:16:52;2.0.10.147;0;;-999999;25;19098;0;1;1074;20172;1;1;1;2;1;0;1;BlockProcFischi;BlockList;1;75;0;;-999999;13;21985;0;1;1254;23239;1;1;1;1;ProcFischi1;ListBlockFischi;22;1;2;0;1;5;Pr2_B;175;1;op;5;2;6;1;22;1;0;TrialProc;2377;708;Pr2_B;231;1473;1242;ListFischi1;0;;2;203;203176;7;15;1499;204675;123;1;1499;1;684;576;1376;1;1
TMS_Ibrahim;45;3;"<?xml version=""1.0""?>\n<Clock xmlns:dt=""urn:schemas-microsoft-com:datatypes""><Description dt:dt=""string"">E-Prime Primary Realtime Clock</Description><StartTime><Timestamp dt:dt=""int"">0</Timestamp><DateUtc dt:dt=""string"">2022-11-08T17:16:51Z</DateUtc></StartTime><FrequencyChanges><FrequencyChange><Frequency dt:dt=""r8"">3312871</Frequency><Timestamp dt:dt=""r8"">105052322377</Timestamp><Current dt:dt=""r8"">0</Current><DateUtc dt:dt=""string"">2022-11-08T17:16:51Z</DateUtc></FrequencyChange></FrequencyChanges></Clock>\n";TMS_Ibrahim-45-3;75.030;1.0.0.561;1;;1973743077;2.0.10.242;2.0.10.242;11/08/2022;08/11/2022 17:16;18:16:52;2.0.10.147;0;;-999999;25;19098;0;1;1074;20172;1;1;1;2;1;0;1;BlockProcFischi;BlockList;1;75;0;;-999999;13;21985;0;1;1254;23239;1;1;1;1;ProcFischi1;ListBlockFischi;23;1;2;0;0;3;Pr5_B;200;3;ug;3;2;30;1;23;3;1;TrialProc;1722;670;Pr5_B;495;1765;1270;ListFischi1;0;;2;203;211066;7;13;1785;212851;265;1;1785;1;485;576;1520;1;1
TMS_Ibrahim;45;3;"<?xml version=""1.0""?>\n<Clock xmlns:dt=""urn:schemas-microsoft-com:datatypes""><Description dt:dt=""string"">E-Prime Primary Realtime Clock</Description><StartTime><Timestamp dt:dt=""int"">0</Timestamp><DateUtc dt:dt=""string"">2022-11-08T17:16:51Z</DateUtc></StartTime><FrequencyChanges><FrequencyChange><Frequency dt:dt=""r8"">3312871</Frequency><Timestamp dt:dt=""r8"">105052322377</Timestamp><Current dt:dt=""r8"">0</Current><DateUtc dt:dt=""string"">2022-11-08T17:16:51Z</DateUtc></FrequencyChange></FrequencyChanges></Clock>\n";TMS_Ibrahim-45-3;75.030;1.0.0.561;1;;1973743077;2.0.10.242;2.0.10.242;11/08/2022;08/11/2022 17:16;18:16:52;2.0.10.147;0;;-999999;25;19098;0;1;1074;20172;1;1;1;2;1;0;1;BlockProcFischi;BlockList;1;75;0;;-999999;13;21985;0;1;1254;23239;1;1;1;1;ProcFischi1;ListBlockFischi;24;0;1;0;0;3;Po2_B;;2;op;5;2;33;1;24;2;0;TrialProc;2963;1578;Po2_B;595;2398;1804;ListFischi1;0;;2;201;218275;9;15;2432;220707;896;1;2432;1;1176;526;1536;1;0
TMS_Ibrahim;45;3;"<?xml version=""1.0""?>\n<Clock xmlns:dt=""urn:schemas-microsoft-com:datatypes""><Description dt:dt=""string"">E-Prime Primary Realtime Clock</Description><StartTime><Timestamp dt:dt=""int"">0</Timestamp><DateUtc dt:dt=""string"">2022-11-08T17:16:51Z</DateUtc></StartTime><FrequencyChanges><FrequencyChange><Frequency dt:dt=""r8"">3312871</Frequency><Timestamp dt:dt=""r8"">105052322377</Timestamp><Current dt:dt=""r8"">0</Current><DateUtc dt:dt=""string"">2022-11-08T17:16:51Z</DateUtc></FrequencyChange></FrequencyChanges></Clock>\n";TMS_Ibrahim-45-3;75.030;1.0.0.561;1;;1973743077;2.0.10.242;2.0.10.242;11/08/2022;08/11/2022 17:16;18:16:52;2.0.10.147;0;;-999999;25;19098;0;1;1074;20172;1;1;1;2;1;0;1;BlockProcFischi;BlockList;1;75;0;;-999999;13;21985;0;1;1254;23239;1;1;1;1;ProcFischi1;ListBlockFischi;25;1;2;0;2;5;Pr2_B;175;1;op;5;2;1;1;25;1;0;TrialProc;2745;714;Pr2_B;226;1472;1247;ListFischi1;0;;2;203;227041;13;155;2258;229299;306;1;1506;1;1154;355;1200;1;1
TMS_Ibrahim;45;3;"<?xml version=""1.0""?>\n<Clock xmlns:dt=""urn:schemas-microsoft-com:datatypes""><Description dt:dt=""string"">E-Prime Primary Realtime Clock</Description><StartTime><Timestamp dt:dt=""int"">0</Timestamp><DateUtc dt:dt=""string"">2022-11-08T17:16:51Z</DateUtc></StartTime><FrequencyChanges><FrequencyChange><Frequency dt:dt=""r8"">3312871</Frequency><Timestamp dt:dt=""r8"">105052322377</Timestamp><Current dt:dt=""r8"">0</Current><DateUtc dt:dt=""string"">2022-11-08T17:16:51Z</DateUtc></FrequencyChange></FrequencyChanges></Clock>\n";TMS_Ibrahim-45-3;75.030;1.0.0.561;1;;1973743077;2.0.10.242;2.0.10.242;11/08/2022;08/11/2022 17:16;18:16:52;2.0.10.147;0;;-999999;25;19098;0;1;1074;20172;1;1;1;2;1;0;1;BlockProcFischi;BlockList;1;75;0;;-999999;13;21985;0;1;1254;23239;1;1;1;1;ProcFischi1;ListBlockFischi;26;1;2;0;0;5;Pr3_B;200;1;op;5;2;7;1;26;1;0;TrialProc;2720;716;Pr3_B;163;1554;1717;ListFischi1;0;;1;201;234238;13;15;1572;235810;68;1;1572;1;896;312;1504;1;1
TMS_Ibrahim;45;3;"<?xml version=""1.0""?>\n<Clock xmlns:dt=""urn:schemas-microsoft-com:datatypes""><Description dt:dt=""string"">E-Prime Primary Realtime Clock</Description><StartTime><Timestamp dt:dt=""int"">0</Timestamp><DateUtc dt:dt=""string"">2022-11-08T17:16:51Z</DateUtc></StartTime><FrequencyChanges><FrequencyChange><Frequency dt:dt=""r8"">3312871</Frequency><Timestamp dt:dt=""r8"">105052322377</Timestamp><Current dt:dt=""r8"">0</Current><DateUtc dt:dt=""string"">2022-11-08T17:16:51Z</DateUtc></FrequencyChange></FrequencyChanges></Clock>\n";TMS_Ibrahim-45-3;75.030;1.0.0.561;1;;1973743077;2.0.10.242;2.0.10.242;11/08/2022;08/11/2022 17:16;18:16:52;2.0.10.147;0;;-999999;25;19098;0;1;1074;20172;1;1;1;2;1;0;1;BlockProcFischi;BlockList;1;75;0;;-999999;13;21985;0;1;1254;23239;1;1;1;1;ProcFischi1;ListBlockFischi;27;1;1;0;0;3;Po4_B;100;2;op;3;2;40;1;27;2;0;TrialProc;2566;1345;Po4_B;209;1509;1718;ListFischi1;0;;2;203;243391;17;13;1539;244930;67;1;1539;1;632;382;1472;1;1
TMS_Ibrahim;45;3;"<?xml version=""1.0""?>\n<Clock xmlns:dt=""urn:schemas-microsoft-com:datatypes""><Description dt:dt=""string"">E-Prime Primary Realtime Clock</Description><StartTime><Timestamp dt:dt=""int"">0</Timestamp><DateUtc dt:dt=""string"">2022-11-08T17:16:51Z</DateUtc></StartTime><FrequencyChanges><FrequencyChange><Frequency dt:dt=""r8"">3312871</Frequency><Timestamp dt:dt=""r8"">105052322377</Timestamp><Current dt:dt=""r8"">0</Current><DateUtc dt:dt=""string"">2022-11-08T17:16:51Z</DateUtc></FrequencyChange></FrequencyChanges></Clock>\n";TMS_Ibrahim-45-3;75.030;1.0.0.561;1;;1973743077;2.0.10.242;2.0.10.242;11/08/2022;08/11/2022 17:16;18:16:52;2.0.10.147;0;;-999999;25;19098;0;1;1074;20172;1;1;1;2;1;0;1;BlockProcFischi;BlockList;1;75;0;;-999999;13;21985;0;1;1254;23239;1;1;1;1;ProcFischi1;ListBlockFischi;28;1;2;0;1;3;Pr3_B;200;3;ug;3;2;18;1;28;3;1;TrialProc;1663;709;Pr3_B;39;1746;1708;ListFischi1;0;;2;203;251930;8;13;1768;253698;216;1;1768;1;757;516;1552;1;1
TMS_Ibrahim;45;3;"<?xml version=""1.0""?>\n<Clock xmlns:dt=""urn:schemas-microsoft-com:datatypes""><Description dt:dt=""string"">E-Prime Primary Realtime Clock</Description><StartTime><Timestamp dt:dt=""int"">0</Timestamp><DateUtc dt:dt=""string"">2022-11-08T17:16:51Z</DateUtc></StartTime><FrequencyChanges><FrequencyChange><Frequency dt:dt=""r8"">3312871</Frequency><Timestamp dt:dt=""r8"">105052322377</Timestamp><Current dt:dt=""r8"">0</Current><DateUtc dt:dt=""string"">2022-11-08T17:16:51Z</DateUtc></FrequencyChange></FrequencyChanges></Clock>\n";TMS_Ibrahim-45-3;75.030;1.0.0.561;1;;1973743077;2.0.10.242;2.0.10.242;11/08/2022;08/11/2022 17:16;18:16:52;2.0.10.147;0;;-999999;25;19098;0;1;1074;20172;1;1;1;2;1;0;1;BlockProcFischi;BlockList;1;75;0;;-999999;13;21985;0;1;1254;23239;1;1;1;1;ProcFischi1;ListBlockFischi;29;1;2;0;0;3;Pr3_B;175;3;ug;3;2;28;1;29;3;1;TrialProc;1309;710;Pr3_B;131;1577;1709;ListFischi1;0;;2;203;260407;7;13;1611;262018;283;1;1611;1;1345;296;1328;1;1
TMS_Ibrahim;45;3;"<?xml version=""1.0""?>\n<Clock xmlns:dt=""urn:schemas-microsoft-com:datatypes""><Description dt:dt=""string"">E-Prime Primary Realtime Clock</Description><StartTime><Timestamp dt:dt=""int"">0</Timestamp><DateUtc dt:dt=""string"">2022-11-08T17:16:51Z</DateUtc></StartTime><FrequencyChanges><FrequencyChange><Frequency dt:dt=""r8"">3312871</Frequency><Timestamp dt:dt=""r8"">105052322377</Timestamp><Current dt:dt=""r8"">0</Current><DateUtc dt:dt=""string"">2022-11-08T17:16:51Z</DateUtc></FrequencyChange></FrequencyChanges></Clock>\n";TMS_Ibrahim-45-3;75.030;1.0.0.561;1;;1973743077;2.0.10.242;2.0.10.242;11/08/2022;08/11/2022 17:16;18:16:52;2.0.10.147;0;;-999999;25;19098;0;1;1074;20172;1;1;1;2;1;0;1;BlockProcFischi;BlockList;1;75;0;;-999999;13;21985;0;1;1254;23239;1;1;1;1;ProcFischi1;ListBlockFischi;30;1;1;0;1;5;Po5_B;225;4;ug;5;2;62;1;30;4;1;TrialProc;1940;974;Po5_B;154;1354;1507;ListFischi1;0;;1;203;269672;6;155;2089;271761;169;1;1385;1;1449;464;1216;1;1
TMS_Ibrahim;45;3;"<?xml version=""1.0""?>\n<Clock xmlns:dt=""urn:schemas-microsoft-com:datatypes""><Description dt:dt=""string"">E-Prime Primary Realtime Clock</Description><StartTime><Timestamp dt:dt=""int"">0</Timestamp><DateUtc dt:dt=""string"">2022-11-08T17:16:51Z</DateUtc></StartTime><FrequencyChanges><FrequencyChange><Frequency dt:dt=""r8"">3312871</Frequency><Timestamp dt:dt=""r8"">105052322377</Timestamp><Current dt:dt=""r8"">0</Current><DateUtc dt:dt=""string"">2022-11-08T17:16:51Z</DateUtc></FrequencyChange></FrequencyChanges></Clock>\n";TMS_Ibrahim-45-3;75.030;1.0.0.561;1;;1973743077;2.0.10.242;2.0.10.242;11/08/2022;08/11/2022 17:16;18:16:52;2.0.10.147;0;;-999999;25;19098;0;1;1074;20172;1;1;1;2;1;0;1;BlockProcFischi;BlockList;1;75;0;;-999999;13;21985;0;1;1254;23239;1;1;1;1;ProcFischi1;ListBlockFischi;31;1;1;0;1;3;Po8_B;100;2;op;3;2;42;1;31;2;0;TrialProc;1158;1246;Po8_B;52;1527;1579;ListFischi1;0;;2;203;278609;11;133;2192;280801;128;1;1552;1;890;497;1424;1;1
TMS_Ibrahim;45;3;"<?xml version=""1.0""?>\n<Clock xmlns:dt=""urn:schemas-microsoft-com:datatypes""><Description dt:dt=""string"">E-Prime Primary Realtime Clock</Description><StartTime><Timestamp dt:dt=""int"">0</Timestamp><DateUtc dt:dt=""string"">2022-11-08T17:16:51Z</DateUtc></StartTime><FrequencyChanges><FrequencyChange><Frequency dt:dt=""r8"">3312871</Frequency><Timestamp dt:dt=""r8"">105052322377</Timestamp><Current dt:dt=""r8"">0</Current><DateUtc dt:dt=""string"">2022-11-08T17:16:51Z</DateUtc></FrequencyChange></FrequencyChanges></Clock>\n";TMS_Ibrahim-45-3;75.030;1.0.0.561;1;;1973743077;2.0.10.242;2.0.10.242;11/08/2022;08/11/2022 17:16;18:16:52;2.0.10.147;0;;-999999;25;19098;0;1;1074;20172;1;1;1;2;1;0;1;BlockProcFischi;BlockList;1;75;0;;-999999;13;21985;0;1;1254;23239;1;1;1;1;ProcFischi1;ListBlockFischi;32;1;1;0;0;5;Po5_B;200;4;ug;5;2;52;1;32;4;1;TrialProc;1378;981;Po5_B;72;1401;1474;ListFischi1;0;;2;201;286059;12;15;1430;287489;390;1;1430;1;2318;398;1040;1;1
TMS_Ibrahim;45;3;"<?xml version=""1.0""?>\n<Clock xmlns:dt=""urn:schemas-microsoft-com:datatypes""><Description dt:dt=""string"">E-Prime Primary Realtime Clock</Description><StartTime><Timestamp dt:dt=""int"">0</Timestamp><DateUtc dt:dt=""string"">2022-11-08T17:16:51Z</DateUtc></StartTime><FrequencyChanges><FrequencyChange><Frequency dt:dt=""r8"">3312871</Frequency><Timestamp dt:dt=""r8"">105052322377</Timestamp><Current dt:dt=""r8"">0</Current><DateUtc dt:dt=""string"">2022-11-08T17:16:51Z</DateUtc></FrequencyChange></FrequencyChanges></Clock>\n";TMS_Ibrahim-45-3;75.030;1.0.0.561;1;;1973743077;2.0.10.242;2.0.10.242;11/08/2022;08/11/2022 17:16;18:16:52;2.0.10.147;0;;-999999;25;19098;0;1;1074;20172;1;1;1;2;1;0;1;BlockProcFischi;BlockList;1;75;0;;-999999;13;21985;0;1;1254;23239;1;1;1;1;ProcFischi1;ListBlockFischi;33;1;1;0;0;5;Po3_B;175;4;ug;5;2;50;1;33;4;1;TrialProc;1846;1326;Po3_B;37;1556;1593;ListFischi1;0;;4;210;295960;14;15;1592;297552;280;1;1592;1;1154;411;1312;1;1
TMS_Ibrahim;45;3;"<?xml version=""1.0""?>\n<Clock xmlns:dt=""urn:schemas-microsoft-com:datatypes""><Description dt:dt=""string"">E-Prime Primary Realtime Clock</Description><StartTime><Timestamp dt:dt=""int"">0</Timestamp><DateUtc dt:dt=""string"">2022-11-08T17:16:51Z</DateUtc></StartTime><FrequencyChanges><FrequencyChange><Frequency dt:dt=""r8"">3312871</Frequency><Timestamp dt:dt=""r8"">105052322377</Timestamp><Current dt:dt=""r8"">0</Current><DateUtc dt:dt=""string"">2022-11-08T17:16:51Z</DateUtc></FrequencyChange></FrequencyChanges></Clock>\n";TMS_Ibrahim-45-3;75.030;1.0.0.561;1;;1973743077;2.0.10.242;2.0.10.242;11/08/2022;08/11/2022 17:16;18:16:52;2.0.10.147;0;;-999999;25;19098;0;1;1074;20172;1;1;1;2;1;0;1;BlockProcFischi;BlockList;1;75;0;;-999999;13;21985;0;1;1254;23239;1;1;1;1;ProcFischi1;ListBlockFischi;34;1;2;1;0;3;Prmod_B;150;3;ug;3;2;31;1;34;3;1;TrialProc;3309;1318;Prmod_B;91;1742;1652;ListFischi1;0;;2;203;306154;16;133;2118;308272;198;1;1766;1;1194;372;1568;1;1
TMS_Ibrahim;45;3;"<?xml version=""1.0""?>\n<Clock xmlns:dt=""urn:schemas-microsoft-com:datatypes""><Description dt:dt=""string"">E-Prime Primary Realtime Clock</Description><StartTime><Timestamp dt:dt=""int"">0</Timestamp><DateUtc dt:dt=""string"">2022-11-08T17:16:51Z</DateUtc></StartTime><FrequencyChanges><FrequencyChange><Frequency dt:dt=""r8"">3312871</Frequency><Timestamp dt:dt=""r8"">105052322377</Timestamp><Current dt:dt=""r8"">0</Current><DateUtc dt:dt=""string"">2022-11-08T17:16:51Z</DateUtc></FrequencyChange></FrequencyChanges></Clock>\n";TMS_Ibrahim-45-3;75.030;1.0.0.561;1;;1973743077;2.0.10.242;2.0.10.242;11/08/2022;08/11/2022 17:16;18:16:52;2.0.10.147;0;;-999999;25;19098;0;1;1074;20172;1;1;1;2;1;0;1;BlockProcFischi;BlockList;1;75;0;;-999999;13;21985;0;1;1254;23239;1;1;1;1;ProcFischi1;ListBlockFischi;35;1;2;0;0;5;Pr4_B;175;1;op;5;2;8;1;35;1;0;TrialProc;1540;672;Pr4_B;193;1439;1245;ListFischi1;0;;2;203;316209;10;15;1471;317680;351;1;1471;1;1134;237;1120;1;1
TMS_Ibrahim;45;3;"<?xml version=""1.0""?>\n<Clock xmlns:dt=""urn:schemas-microsoft-com:datatypes""><Description dt:dt=""string"">E-Prime Primary Realtime Clock</Description><StartTime><Timestamp dt:dt=""int"">0</Timestamp><DateUtc dt:dt=""string"">2022-11-08T17:16:51Z</DateUtc></StartTime><FrequencyChanges><FrequencyChange><Frequency dt:dt=""r8"">3312871</Frequency><Timestamp dt:dt=""r8"">105052322377</Timestamp><Current dt:dt=""r8"">0</Current><DateUtc dt:dt=""string"">2022-11-08T17:16:51Z</DateUtc></FrequencyChange></FrequencyChanges></Clock>\n";TMS_Ibrahim-45-3;75.030;1.0.0.561;1;;1973743077;2.0.10.242;2.0.10.242;11/08/2022;08/11/2022 17:16;18:16:52;2.0.10.147;0;;-999999;25;19098;0;1;1074;20172;1;1;1;2;1;0;1;BlockProcFischi;BlockList;1;75;0;;-999999;13;21985;0;1;1254;23239;1;1;1;1;ProcFischi1;ListBlockFischi;36;1;1;0;0;3;Po4_B;75;2;op;3;2;45;1;36;2;0;TrialProc;4068;1342;Po4_B;346;1370;1715;ListFischi1;0;;2;203;324721;15;133;2718;327439;111;1;1390;1;785;484;1279;1;1
