ExperimentName;Subject;Session;Clock.Information;DataFile.Basename;Display.RefreshRate;ExperimentVersion;Group;Name;RandomSeed;RuntimeVersion;RuntimeVersionExpected;SessionDate;SessionStartDateTimeUtc;SessionTime;StudioVersion;SyncEprimeKinB1.ACC;SyncEprimeKinB1.CRESP;SyncEprimeKinB1.DurationError;SyncEprimeKinB1.OnsetDelay;SyncEprimeKinB1.OnsetTime;SyncEprimeKinB1.OnsetToOnsetTime;SyncEprimeKinB1.RESP;SyncEprimeKinB1.RT;SyncEprimeKinB1.RTTime;Block;BlockINT_0Fischi_1Suoni;BlockList;BlockList.Cycle;BlockList.Sample;ContatoreSuoni;NumSuono;Procedure[Block];Running[Block];Suonilist;SuonoFinSoglia;SyncEprimeKinFischi1.ACC;SyncEprimeKinFischi1.CRESP;SyncEprimeKinFischi1.DurationError;SyncEprimeKinFischi1.OnsetDelay;SyncEprimeKinFischi1.OnsetTime;SyncEprimeKinFischi1.OnsetToOnsetTime;SyncEprimeKinFischi1.RESP;SyncEprimeKinFischi1.RT;SyncEprimeKinFischi1.RTTime;Trial;ListBlockFischi;ListBlockFischi.Cycle;ListBlockFischi.Sample;Procedure[Trial];Running[Trial];SubTrial;AccSogg1;Avatar_Giu1_Su2;CatchTrial_CORR;ContatoreFinestraSoglia;CorrectResponse;File_Name;FinestraSoglia;IdcondEEG;Istruzione;KeySoggetto1;KeySoggetto2;ListFischi1;ListFischi1.Cycle;ListFischi1.Sample;NumeroSuono;OP_UG;Procedure[SubTrial];Resoconto.RT;RTChange;RTimage;RTNetto;RTSubj;RTTouch;Running[SubTrial];StartGo.ACC;StartGo.CRESP;StartGo.DurationError;StartGo.OnsetDelay;StartGo.OnsetTime;StartGo.OnsetToOnsetTime;StartGo.RESP;StartGo.RT;StartGo.RTTime;StartSoggetto1;StartSoggetto2;StopSoggetto1;StopSoggetto2;StopTrial.RT;tempo;TMSoggetto1;ValiditaTrial;Vincitore
TMS_Ibrahim;46;2;"<?xml version=""1.0""?>\n<Clock xmlns:dt=""urn:schemas-microsoft-com:datatypes""><Description dt:dt=""string"">E-Prime Primary Realtime Clock</Description><StartTime><Timestamp dt:dt=""int"">0</Timestamp><DateUtc dt:dt=""string"">2022-11-09T14:42:32Z</DateUtc></StartTime><FrequencyChanges><FrequencyChange><Frequency dt:dt=""r8"">3312880</Frequency><Timestamp dt:dt=""r8"">77196284473</Timestamp><Current dt:dt=""r8"">0</Current><DateUtc dt:dt=""string"">2022-11-09T14:42:32Z</DateUtc></FrequencyChange></FrequencyChanges></Clock>\n";TMS_Ibrahim-46-2;75.030;1.0.0.561;1;;-112463482;2.0.10.242;2.0.10.242;11/09/2022;09/11/2022 14:42;15:42:33;2.0.10.147;0;;-999999;21;16825;0;1;1102;17927;1;1;1;2;1;0;1;BlockProcFischi;BlockList;1;100;0;;-999999;13;20523;0;1;1804;22327;1;1;1;1;ProcFischi1;ListBlockFischi;1;1;2;0;0;3;Pr4_B;250;3;ug;3;2;29;1;1;3;1;TrialProc;2693;694;Pr4_B;322;1590;1268;ListFischi1;0;;5;210;25605;23;13;1624;27229;520;1;1624;1;841;445;1104;1;1
TMS_Ibrahim;46;2;"<?xml version=""1.0""?>\n<Clock xmlns:dt=""urn:schemas-microsoft-com:datatypes""><Description dt:dt=""string"">E-Prime Primary Realtime Clock</Description><StartTime><Timestamp dt:dt=""int"">0</Timestamp><DateUtc dt:dt=""string"">2022-11-09T14:42:32Z</DateUtc></StartTime><FrequencyChanges><FrequencyChange><Frequency dt:dt=""r8"">3312880</Frequency><Timestamp dt:dt=""r8"">77196284473</Timestamp><Current dt:dt=""r8"">0</Current><DateUtc dt:dt=""string"">2022-11-09T14:42:32Z</DateUtc></FrequencyChange></FrequencyChanges></Clock>\n";TMS_Ibrahim-46-2;75.030;1.0.0.561;1;;-112463482;2.0.10.242;2.0.10.242;11/09/2022;09/11/2022 14:42;15:42:33;2.0.10.147;0;;-999999;21;16825;0;1;1102;17927;1;1;1;2;1;0;1;BlockProcFischi;BlockList;1;100;0;;-999999;13;20523;0;1;1804;22327;1;1;1;1;ProcFischi1;ListBlockFischi;2;1;2;0;1;3;Pr5_B;250;3;ug;3;2;20;1;2;3;1;TrialProc;2744;677;Pr5_B;74;1204;1278;ListFischi1;0;;2;203;33783;15;133;1621;35404;325;1;1237;1;507;389;912;1;1
TMS_Ibrahim;46;2;"<?xml version=""1.0""?>\n<Clock xmlns:dt=""urn:schemas-microsoft-com:datatypes""><Description dt:dt=""string"">E-Prime Primary Realtime Clock</Description><StartTime><Timestamp dt:dt=""int"">0</Timestamp><DateUtc dt:dt=""string"">2022-11-09T14:42:32Z</DateUtc></StartTime><FrequencyChanges><FrequencyChange><Frequency dt:dt=""r8"">3312880</Frequency><Timestamp dt:dt=""r8"">77196284473</Timestamp><Current dt:dt=""r8"">0</Current><DateUtc dt:dt=""string"">2022-11-09T14:42:32Z</DateUtc></FrequencyChange></FrequencyChanges></Clock>\n";TMS_Ibrahim-46-2;75.030;1.0.0.561;1;;-112463482;2.0.10.242;2.0.10.242;11/09/2022;09/11/2022 14:42;15:42:33;2.0.10.147;0;;-999999;21;16825;0;1;1102;17927;1;1;1;2;1;0;1;BlockProcFischi;BlockList;1;100;0;;-999999;13;20523;0;1;1804;22327;1;1;1;1;ProcFischi1;ListBlockFischi;3;1;1;0;0;3;Po3_B;250;2;op;3;2;34;1;3;2;0;TrialProc;2041;1314;Po3_B;106;1475;1581;ListFischi1;0;;2;203;41728;14;13;1500;43228;316;1;1500;1;316;288;1184;1;1
TMS_Ibrahim;46;2;"<?xml version=""1.0""?>\n<Clock xmlns:dt=""urn:schemas-microsoft-com:datatypes""><Description dt:dt=""string"">E-Prime Primary Realtime Clock</Description><StartTime><Timestamp dt:dt=""int"">0</Timestamp><DateUtc dt:dt=""string"">2022-11-09T14:42:32Z</DateUtc></StartTime><FrequencyChanges><FrequencyChange><Frequency dt:dt=""r8"">3312880</Frequency><Timestamp dt:dt=""r8"">77196284473</Timestamp><Current dt:dt=""r8"">0</Current><DateUtc dt:dt=""string"">2022-11-09T14:42:32Z</DateUtc></FrequencyChange></FrequencyChanges></Clock>\n";TMS_Ibrahim-46-2;75.030;1.0.0.561;1;;-112463482;2.0.10.242;2.0.10.242;11/09/2022;09/11/2022 14:42;15:42:33;2.0.10.147;0;;-999999;21;16825;0;1;1102;17927;1;1;1;2;1;0;1;BlockProcFischi;BlockList;1;100;0;;-999999;13;20523;0;1;1804;22327;1;1;1;1;ProcFischi1;ListBlockFischi;4;0;1;1;0;5;Pomod_B;;4;ug;3;2;63;1;4;4;1;TrialProc;1352;1316;Pomod_B;179;1854;1675;ListFischi1;0;;2;201;48899;13;13;1881;50780;441;1;1881;1;686;423;1440;1;0
TMS_Ibrahim;46;2;"<?xml version=""1.0""?>\n<Clock xmlns:dt=""urn:schemas-microsoft-com:datatypes""><Description dt:dt=""string"">E-Prime Primary Realtime Clock</Description><StartTime><Timestamp dt:dt=""int"">0</Timestamp><DateUtc dt:dt=""string"">2022-11-09T14:42:32Z</DateUtc></StartTime><FrequencyChanges><FrequencyChange><Frequency dt:dt=""r8"">3312880</Frequency><Timestamp dt:dt=""r8"">77196284473</Timestamp><Current dt:dt=""r8"">0</Current><DateUtc dt:dt=""string"">2022-11-09T14:42:32Z</DateUtc></FrequencyChange></FrequencyChanges></Clock>\n";TMS_Ibrahim-46-2;75.030;1.0.0.561;1;;-112463482;2.0.10.242;2.0.10.242;11/09/2022;09/11/2022 14:42;15:42:33;2.0.10.147;0;;-999999;21;16825;0;1;1102;17927;1;1;1;2;1;0;1;BlockProcFischi;BlockList;1;100;0;;-999999;13;20523;0;1;1804;22327;1;1;1;1;ProcFischi1;ListBlockFischi;5;1;1;0;0;5;Po5_B;250;4;ug;5;2;62;1;5;4;1;TrialProc;2072;987;Po5_B;17;1463;1480;ListFischi1;0;;2;203;55864;19;15;1492;57356;356;1;1492;1;847;578;1136;1;1
TMS_Ibrahim;46;2;"<?xml version=""1.0""?>\n<Clock xmlns:dt=""urn:schemas-microsoft-com:datatypes""><Description dt:dt=""string"">E-Prime Primary Realtime Clock</Description><StartTime><Timestamp dt:dt=""int"">0</Timestamp><DateUtc dt:dt=""string"">2022-11-09T14:42:32Z</DateUtc></StartTime><FrequencyChanges><FrequencyChange><Frequency dt:dt=""r8"">3312880</Frequency><Timestamp dt:dt=""r8"">77196284473</Timestamp><Current dt:dt=""r8"">0</Current><DateUtc dt:dt=""string"">2022-11-09T14:42:32Z</DateUtc></FrequencyChange></FrequencyChanges></Clock>\n";TMS_Ibrahim-46-2;75.030;1.0.0.561;1;;-112463482;2.0.10.242;2.0.10.242;11/09/2022;09/11/2022 14:42;15:42:33;2.0.10.147;0;;-999999;21;16825;0;1;1102;17927;1;1;1;2;1;0;1;BlockProcFischi;BlockList;1;100;0;;-999999;13;20523;0;1;1804;22327;1;1;1;1;ProcFischi1;ListBlockFischi;6;1;2;0;0;5;Pr8_B;250;1;op;5;2;5;1;6;1;0;TrialProc;1854;712;Pr8_B;117;1856;1739;ListFischi1;0;;2;203;65562;10;15;1889;67451;369;1;1889;1;666;304;1520;1;1
TMS_Ibrahim;46;2;"<?xml version=""1.0""?>\n<Clock xmlns:dt=""urn:schemas-microsoft-com:datatypes""><Description dt:dt=""string"">E-Prime Primary Realtime Clock</Description><StartTime><Timestamp dt:dt=""int"">0</Timestamp><DateUtc dt:dt=""string"">2022-11-09T14:42:32Z</DateUtc></StartTime><FrequencyChanges><FrequencyChange><Frequency dt:dt=""r8"">3312880</Frequency><Timestamp dt:dt=""r8"">77196284473</Timestamp><Current dt:dt=""r8"">0</Current><DateUtc dt:dt=""string"">2022-11-09T14:42:32Z</DateUtc></FrequencyChange></FrequencyChanges></Clock>\n";TMS_Ibrahim-46-2;75.030;1.0.0.561;1;;-112463482;2.0.10.242;2.0.10.242;11/09/2022;09/11/2022 14:42;15:42:33;2.0.10.147;0;;-999999;21;16825;0;1;1102;17927;1;1;1;2;1;0;1;BlockProcFischi;BlockList;1;100;0;;-999999;13;20523;0;1;1804;22327;1;1;1;1;ProcFischi1;ListBlockFischi;7;1;1;0;0;3;Po5_B;225;2;op;3;2;46;1;7;2;0;TrialProc;2325;981;Po5_B;110;1584;1473;ListFischi1;0;;2;203;75010;12;13;1609;76619;441;1;1609;1;1115;324;1168;1;1
TMS_Ibrahim;46;2;"<?xml version=""1.0""?>\n<Clock xmlns:dt=""urn:schemas-microsoft-com:datatypes""><Description dt:dt=""string"">E-Prime Primary Realtime Clock</Description><StartTime><Timestamp dt:dt=""int"">0</Timestamp><DateUtc dt:dt=""string"">2022-11-09T14:42:32Z</DateUtc></StartTime><FrequencyChanges><FrequencyChange><Frequency dt:dt=""r8"">3312880</Frequency><Timestamp dt:dt=""r8"">77196284473</Timestamp><Current dt:dt=""r8"">0</Current><DateUtc dt:dt=""string"">2022-11-09T14:42:32Z</DateUtc></FrequencyChange></FrequencyChanges></Clock>\n";TMS_Ibrahim-46-2;75.030;1.0.0.561;1;;-112463482;2.0.10.242;2.0.10.242;11/09/2022;09/11/2022 14:42;15:42:33;2.0.10.147;0;;-999999;21;16825;0;1;1102;17927;1;1;1;2;1;0;1;BlockProcFischi;BlockList;1;100;0;;-999999;13;20523;0;1;1804;22327;1;1;1;1;ProcFischi1;ListBlockFischi;8;1;1;0;0;3;Po5_B;200;2;op;3;2;36;1;8;2;0;TrialProc;1923;983;Po5_B;66;1542;1476;ListFischi1;0;;2;203;85710;15;133;2684;88394;493;1;1564;1;1523;253;1071;1;1
TMS_Ibrahim;46;2;"<?xml version=""1.0""?>\n<Clock xmlns:dt=""urn:schemas-microsoft-com:datatypes""><Description dt:dt=""string"">E-Prime Primary Realtime Clock</Description><StartTime><Timestamp dt:dt=""int"">0</Timestamp><DateUtc dt:dt=""string"">2022-11-09T14:42:32Z</DateUtc></StartTime><FrequencyChanges><FrequencyChange><Frequency dt:dt=""r8"">3312880</Frequency><Timestamp dt:dt=""r8"">77196284473</Timestamp><Current dt:dt=""r8"">0</Current><DateUtc dt:dt=""string"">2022-11-09T14:42:32Z</DateUtc></FrequencyChange></FrequencyChanges></Clock>\n";TMS_Ibrahim-46-2;75.030;1.0.0.561;1;;-112463482;2.0.10.242;2.0.10.242;11/09/2022;09/11/2022 14:42;15:42:33;2.0.10.147;0;;-999999;21;16825;0;1;1102;17927;1;1;1;2;1;0;1;BlockProcFischi;BlockList;1;100;0;;-999999;13;20523;0;1;1804;22327;1;1;1;1;ProcFischi1;ListBlockFischi;9;1;2;0;0;5;Pr5_B;225;1;op;5;2;9;1;9;1;0;TrialProc;3298;674;Pr5_B;189;1463;1275;ListFischi1;0;;2;203;94069;12;15;1493;95562;437;1;1493;1;1397;522;1056;1;1
TMS_Ibrahim;46;2;"<?xml version=""1.0""?>\n<Clock xmlns:dt=""urn:schemas-microsoft-com:datatypes""><Description dt:dt=""string"">E-Prime Primary Realtime Clock</Description><StartTime><Timestamp dt:dt=""int"">0</Timestamp><DateUtc dt:dt=""string"">2022-11-09T14:42:32Z</DateUtc></StartTime><FrequencyChanges><FrequencyChange><Frequency dt:dt=""r8"">3312880</Frequency><Timestamp dt:dt=""r8"">77196284473</Timestamp><Current dt:dt=""r8"">0</Current><DateUtc dt:dt=""string"">2022-11-09T14:42:32Z</DateUtc></FrequencyChange></FrequencyChanges></Clock>\n";TMS_Ibrahim-46-2;75.030;1.0.0.561;1;;-112463482;2.0.10.242;2.0.10.242;11/09/2022;09/11/2022 14:42;15:42:33;2.0.10.147;0;;-999999;21;16825;0;1;1102;17927;1;1;1;2;1;0;1;BlockProcFischi;BlockList;1;100;0;;-999999;13;20523;0;1;1804;22327;1;1;1;1;ProcFischi1;ListBlockFischi;10;1;2;0;0;5;Pr5_B;200;1;op;5;2;4;1;10;1;0;TrialProc;2233;669;Pr5_B;157;1427;1270;ListFischi1;0;;2;203;104283;8;155;2175;106458;513;1;1455;1;2167;390;942;1;1
TMS_Ibrahim;46;2;"<?xml version=""1.0""?>\n<Clock xmlns:dt=""urn:schemas-microsoft-com:datatypes""><Description dt:dt=""string"">E-Prime Primary Realtime Clock</Description><StartTime><Timestamp dt:dt=""int"">0</Timestamp><DateUtc dt:dt=""string"">2022-11-09T14:42:32Z</DateUtc></StartTime><FrequencyChanges><FrequencyChange><Frequency dt:dt=""r8"">3312880</Frequency><Timestamp dt:dt=""r8"">77196284473</Timestamp><Current dt:dt=""r8"">0</Current><DateUtc dt:dt=""string"">2022-11-09T14:42:32Z</DateUtc></FrequencyChange></FrequencyChanges></Clock>\n";TMS_Ibrahim-46-2;75.030;1.0.0.561;1;;-112463482;2.0.10.242;2.0.10.242;11/09/2022;09/11/2022 14:42;15:42:33;2.0.10.147;0;;-999999;21;16825;0;1;1102;17927;1;1;1;2;1;0;1;BlockProcFischi;BlockList;1;100;0;;-999999;13;20523;0;1;1804;22327;1;1;1;1;ProcFischi1;ListBlockFischi;11;1;2;0;0;3;Pr3_B;225;3;ug;3;2;23;1;11;3;1;TrialProc;1408;709;Pr3_B;225;1933;1708;ListFischi1;0;;2;203;113188;6;13;1958;115146;534;1;1958;1;953;463;1424;1;1
TMS_Ibrahim;46;2;"<?xml version=""1.0""?>\n<Clock xmlns:dt=""urn:schemas-microsoft-com:datatypes""><Description dt:dt=""string"">E-Prime Primary Realtime Clock</Description><StartTime><Timestamp dt:dt=""int"">0</Timestamp><DateUtc dt:dt=""string"">2022-11-09T14:42:32Z</DateUtc></StartTime><FrequencyChanges><FrequencyChange><Frequency dt:dt=""r8"">3312880</Frequency><Timestamp dt:dt=""r8"">77196284473</Timestamp><Current dt:dt=""r8"">0</Current><DateUtc dt:dt=""string"">2022-11-09T14:42:32Z</DateUtc></FrequencyChange></FrequencyChanges></Clock>\n";TMS_Ibrahim-46-2;75.030;1.0.0.561;1;;-112463482;2.0.10.242;2.0.10.242;11/09/2022;09/11/2022 14:42;15:42:33;2.0.10.147;0;;-999999;21;16825;0;1;1102;17927;1;1;1;2;1;0;1;BlockProcFischi;BlockList;1;100;0;;-999999;13;20523;0;1;1804;22327;1;1;1;1;ProcFischi1;ListBlockFischi;12;1;1;0;0;3;Po4_B;175;2;op;3;2;35;1;12;2;0;TrialProc;3674;1342;Po4_B;33;1747;1715;ListFischi1;0;;2;203;121310;14;13;1771;123081;555;1;1771;1;614;572;1216;1;1
TMS_Ibrahim;46;2;"<?xml version=""1.0""?>\n<Clock xmlns:dt=""urn:schemas-microsoft-com:datatypes""><Description dt:dt=""string"">E-Prime Primary Realtime Clock</Description><StartTime><Timestamp dt:dt=""int"">0</Timestamp><DateUtc dt:dt=""string"">2022-11-09T14:42:32Z</DateUtc></StartTime><FrequencyChanges><FrequencyChange><Frequency dt:dt=""r8"">3312880</Frequency><Timestamp dt:dt=""r8"">77196284473</Timestamp><Current dt:dt=""r8"">0</Current><DateUtc dt:dt=""string"">2022-11-09T14:42:32Z</DateUtc></FrequencyChange></FrequencyChanges></Clock>\n";TMS_Ibrahim-46-2;75.030;1.0.0.561;1;;-112463482;2.0.10.242;2.0.10.242;11/09/2022;09/11/2022 14:42;15:42:33;2.0.10.147;0;;-999999;21;16825;0;1;1102;17927;1;1;1;2;1;0;1;BlockProcFischi;BlockList;1;100;0;;-999999;13;20523;0;1;1804;22327;1;1;1;1;ProcFischi1;ListBlockFischi;13;1;1;0;0;3;Po3_B;150;2;op;3;2;44;1;13;2;0;TrialProc;4705;1318;Po3_B;86;1500;1586;ListFischi1;0;;2;203;130250;17;13;1519;131769;415;1;1519;1;952;486;1104;1;1
TMS_Ibrahim;46;2;"<?xml version=""1.0""?>\n<Clock xmlns:dt=""urn:schemas-microsoft-com:datatypes""><Description dt:dt=""string"">E-Prime Primary Realtime Clock</Description><StartTime><Timestamp dt:dt=""int"">0</Timestamp><DateUtc dt:dt=""string"">2022-11-09T14:42:32Z</DateUtc></StartTime><FrequencyChanges><FrequencyChange><Frequency dt:dt=""r8"">3312880</Frequency><Timestamp dt:dt=""r8"">77196284473</Timestamp><Current dt:dt=""r8"">0</Current><DateUtc dt:dt=""string"">2022-11-09T14:42:32Z</DateUtc></FrequencyChange></FrequencyChanges></Clock>\n";TMS_Ibrahim-46-2;75.030;1.0.0.561;1;;-112463482;2.0.10.242;2.0.10.242;11/09/2022;09/11/2022 14:42;15:42:33;2.0.10.147;0;;-999999;21;16825;0;1;1102;17927;1;1;1;2;1;0;1;BlockProcFischi;BlockList;1;100;0;;-999999;13;20523;0;1;1804;22327;1;1;1;1;ProcFischi1;ListBlockFischi;14;1;2;0;0;3;Pr8_B;225;3;ug;3;2;26;1;14;3;1;TrialProc;3014;714;Pr8_B;92;1648;1740;ListFischi1;0;;2;203;141117;12;1333;2668;143785;636;1;1676;1;506;404;1040;1;1
TMS_Ibrahim;46;2;"<?xml version=""1.0""?>\n<Clock xmlns:dt=""urn:schemas-microsoft-com:datatypes""><Description dt:dt=""string"">E-Prime Primary Realtime Clock</Description><StartTime><Timestamp dt:dt=""int"">0</Timestamp><DateUtc dt:dt=""string"">2022-11-09T14:42:32Z</DateUtc></StartTime><FrequencyChanges><FrequencyChange><Frequency dt:dt=""r8"">3312880</Frequency><Timestamp dt:dt=""r8"">77196284473</Timestamp><Current dt:dt=""r8"">0</Current><DateUtc dt:dt=""string"">2022-11-09T14:42:32Z</DateUtc></FrequencyChange></FrequencyChanges></Clock>\n";TMS_Ibrahim-46-2;75.030;1.0.0.561;1;;-112463482;2.0.10.242;2.0.10.242;11/09/2022;09/11/2022 14:42;15:42:33;2.0.10.147;0;;-999999;21;16825;0;1;1102;17927;1;1;1;2;1;0;1;BlockProcFischi;BlockList;1;100;0;;-999999;13;20523;0;1;1804;22327;1;1;1;1;ProcFischi1;ListBlockFischi;15;1;2;0;0;3;Pr2_B;200;3;ug;3;2;27;1;15;3;1;TrialProc;2475;720;Pr2_B;22;1274;1253;ListFischi1;0;;2;203;150535;17;13;1298;151833;401;1;1298;1;1408;527;897;1;1
TMS_Ibrahim;46;2;"<?xml version=""1.0""?>\n<Clock xmlns:dt=""urn:schemas-microsoft-com:datatypes""><Description dt:dt=""string"">E-Prime Primary Realtime Clock</Description><StartTime><Timestamp dt:dt=""int"">0</Timestamp><DateUtc dt:dt=""string"">2022-11-09T14:42:32Z</DateUtc></StartTime><FrequencyChanges><FrequencyChange><Frequency dt:dt=""r8"">3312880</Frequency><Timestamp dt:dt=""r8"">77196284473</Timestamp><Current dt:dt=""r8"">0</Current><DateUtc dt:dt=""string"">2022-11-09T14:42:32Z</DateUtc></FrequencyChange></FrequencyChanges></Clock>\n";TMS_Ibrahim-46-2;75.030;1.0.0.561;1;;-112463482;2.0.10.242;2.0.10.242;11/09/2022;09/11/2022 14:42;15:42:33;2.0.10.147;0;;-999999;21;16825;0;1;1102;17927;1;1;1;2;1;0;1;BlockProcFischi;BlockList;1;100;0;;-999999;13;20523;0;1;1804;22327;1;1;1;1;ProcFischi1;ListBlockFischi;16;1;1;0;0;5;Po2_B;225;4;ug;5;2;54;1;16;4;1;TrialProc;3725;1587;Po2_B;257;1557;1815;ListFischi1;0;;2;203;159464;18;155;2832;162296;498;1;1584;1;933;218;1086;1;1
TMS_Ibrahim;46;2;"<?xml version=""1.0""?>\n<Clock xmlns:dt=""urn:schemas-microsoft-com:datatypes""><Description dt:dt=""string"">E-Prime Primary Realtime Clock</Description><StartTime><Timestamp dt:dt=""int"">0</Timestamp><DateUtc dt:dt=""string"">2022-11-09T14:42:32Z</DateUtc></StartTime><FrequencyChanges><FrequencyChange><Frequency dt:dt=""r8"">3312880</Frequency><Timestamp dt:dt=""r8"">77196284473</Timestamp><Current dt:dt=""r8"">0</Current><DateUtc dt:dt=""string"">2022-11-09T14:42:32Z</DateUtc></FrequencyChange></FrequencyChanges></Clock>\n";TMS_Ibrahim-46-2;75.030;1.0.0.561;1;;-112463482;2.0.10.242;2.0.10.242;11/09/2022;09/11/2022 14:42;15:42:33;2.0.10.147;0;;-999999;21;16825;0;1;1102;17927;1;1;1;2;1;0;1;BlockProcFischi;BlockList;1;100;0;;-999999;13;20523;0;1;1804;22327;1;1;1;1;ProcFischi1;ListBlockFischi;17;1;2;0;0;5;Pr4_B;175;1;op;5;2;13;1;17;1;0;TrialProc;3867;679;Pr4_B;377;1628;1252;ListFischi1;0;;2;203;169596;16;155;1996;171592;430;1;1660;1;1902;442;1230;1;1
TMS_Ibrahim;46;2;"<?xml version=""1.0""?>\n<Clock xmlns:dt=""urn:schemas-microsoft-com:datatypes""><Description dt:dt=""string"">E-Prime Primary Realtime Clock</Description><StartTime><Timestamp dt:dt=""int"">0</Timestamp><DateUtc dt:dt=""string"">2022-11-09T14:42:32Z</DateUtc></StartTime><FrequencyChanges><FrequencyChange><Frequency dt:dt=""r8"">3312880</Frequency><Timestamp dt:dt=""r8"">77196284473</Timestamp><Current dt:dt=""r8"">0</Current><DateUtc dt:dt=""string"">2022-11-09T14:42:32Z</DateUtc></FrequencyChange></FrequencyChanges></Clock>\n";TMS_Ibrahim-46-2;75.030;1.0.0.561;1;;-112463482;2.0.10.242;2.0.10.242;11/09/2022;09/11/2022 14:42;15:42:33;2.0.10.147;0;;-999999;21;16825;0;1;1102;17927;1;1;1;2;1;0;1;BlockProcFischi;BlockList;1;100;0;;-999999;13;20523;0;1;1804;22327;1;1;1;1;ProcFischi1;ListBlockFischi;18;1;2;0;0;3;Pr8_B;175;3;ug;3;2;21;1;18;3;1;TrialProc;1586;711;Pr8_B;37;1699;1736;ListFischi1;0;;2;203;179386;8;13;1725;181111;669;1;1725;1;1128;259;1056;1;1
TMS_Ibrahim;46;2;"<?xml version=""1.0""?>\n<Clock xmlns:dt=""urn:schemas-microsoft-com:datatypes""><Description dt:dt=""string"">E-Prime Primary Realtime Clock</Description><StartTime><Timestamp dt:dt=""int"">0</Timestamp><DateUtc dt:dt=""string"">2022-11-09T14:42:32Z</DateUtc></StartTime><FrequencyChanges><FrequencyChange><Frequency dt:dt=""r8"">3312880</Frequency><Timestamp dt:dt=""r8"">77196284473</Timestamp><Current dt:dt=""r8"">0</Current><DateUtc dt:dt=""string"">2022-11-09T14:42:32Z</DateUtc></FrequencyChange></FrequencyChanges></Clock>\n";TMS_Ibrahim-46-2;75.030;1.0.0.561;1;;-112463482;2.0.10.242;2.0.10.242;11/09/2022;09/11/2022 14:42;15:42:33;2.0.10.147;0;;-999999;21;16825;0;1;1102;17927;1;1;1;2;1;0;1;BlockProcFischi;BlockList;1;100;0;;-999999;13;20523;0;1;1804;22327;1;1;1;1;ProcFischi1;ListBlockFischi;19;1;2;0;1;5;Pr2_B;175;1;op;5;2;6;1;19;1;0;TrialProc;2245;718;Pr2_B;191;1443;1251;ListFischi1;0;;2;203;188266;18;15;1469;189735;527;1;1469;1;1259;357;942;1;1
TMS_Ibrahim;46;2;"<?xml version=""1.0""?>\n<Clock xmlns:dt=""urn:schemas-microsoft-com:datatypes""><Description dt:dt=""string"">E-Prime Primary Realtime Clock</Description><StartTime><Timestamp dt:dt=""int"">0</Timestamp><DateUtc dt:dt=""string"">2022-11-09T14:42:32Z</DateUtc></StartTime><FrequencyChanges><FrequencyChange><Frequency dt:dt=""r8"">3312880</Frequency><Timestamp dt:dt=""r8"">77196284473</Timestamp><Current dt:dt=""r8"">0</Current><DateUtc dt:dt=""string"">2022-11-09T14:42:32Z</DateUtc></FrequencyChange></FrequencyChanges></Clock>\n";TMS_Ibrahim-46-2;75.030;1.0.0.561;1;;-112463482;2.0.10.242;2.0.10.242;11/09/2022;09/11/2022 14:42;15:42:33;2.0.10.147;0;;-999999;21;16825;0;1;1102;17927;1;1;1;2;1;0;1;BlockProcFischi;BlockList;1;100;0;;-999999;13;20523;0;1;1804;22327;1;1;1;1;ProcFischi1;ListBlockFischi;20;1;1;0;0;3;Po4_B;125;2;op;3;2;45;1;20;2;0;TrialProc;3149;1340;Po4_B;146;1567;1712;ListFischi1;0;;2;203;197203;11;13;1588;198791;500;1;1588;1;496;561;1088;1;1
TMS_Ibrahim;46;2;"<?xml version=""1.0""?>\n<Clock xmlns:dt=""urn:schemas-microsoft-com:datatypes""><Description dt:dt=""string"">E-Prime Primary Realtime Clock</Description><StartTime><Timestamp dt:dt=""int"">0</Timestamp><DateUtc dt:dt=""string"">2022-11-09T14:42:32Z</DateUtc></StartTime><FrequencyChanges><FrequencyChange><Frequency dt:dt=""r8"">3312880</Frequency><Timestamp dt:dt=""r8"">77196284473</Timestamp><Current dt:dt=""r8"">0</Current><DateUtc dt:dt=""string"">2022-11-09T14:42:32Z</DateUtc></FrequencyChange></FrequencyChanges></Clock>\n";TMS_Ibrahim-46-2;75.030;1.0.0.561;1;;-112463482;2.0.10.242;2.0.10.242;11/09/2022;09/11/2022 14:42;15:42:33;2.0.10.147;0;;-999999;21;16825;0;1;1102;17927;1;1;1;2;1;0;1;BlockProcFischi;BlockList;1;100;0;;-999999;13;20523;0;1;1804;22327;1;1;1;1;ProcFischi1;ListBlockFischi;21;1;2;0;1;5;Pr2_B;175;1;op;5;2;11;1;21;1;0;TrialProc;2128;716;Pr2_B;167;1416;1249;ListFischi1;0;;2;201;205077;14;15;1441;206518;433;1;1441;1;893;206;1008;1;1
TMS_Ibrahim;46;2;"<?xml version=""1.0""?>\n<Clock xmlns:dt=""urn:schemas-microsoft-com:datatypes""><Description dt:dt=""string"">E-Prime Primary Realtime Clock</Description><StartTime><Timestamp dt:dt=""int"">0</Timestamp><DateUtc dt:dt=""string"">2022-11-09T14:42:32Z</DateUtc></StartTime><FrequencyChanges><FrequencyChange><Frequency dt:dt=""r8"">3312880</Frequency><Timestamp dt:dt=""r8"">77196284473</Timestamp><Current dt:dt=""r8"">0</Current><DateUtc dt:dt=""string"">2022-11-09T14:42:32Z</DateUtc></FrequencyChange></FrequencyChanges></Clock>\n";TMS_Ibrahim-46-2;75.030;1.0.0.561;1;;-112463482;2.0.10.242;2.0.10.242;11/09/2022;09/11/2022 14:42;15:42:33;2.0.10.147;0;;-999999;21;16825;0;1;1102;17927;1;1;1;2;1;0;1;BlockProcFischi;BlockList;1;100;0;;-999999;13;20523;0;1;1804;22327;1;1;1;1;ProcFischi1;ListBlockFischi;22;1;2;0;0;3;Pr5_B;150;3;ug;3;2;30;1;22;3;1;TrialProc;1324;676;Pr5_B;106;1381;1275;ListFischi1;0;;2;203;213073;15;13;1413;214486;453;1;1413;1;645;252;960;1;1
TMS_Ibrahim;46;2;"<?xml version=""1.0""?>\n<Clock xmlns:dt=""urn:schemas-microsoft-com:datatypes""><Description dt:dt=""string"">E-Prime Primary Realtime Clock</Description><StartTime><Timestamp dt:dt=""int"">0</Timestamp><DateUtc dt:dt=""string"">2022-11-09T14:42:32Z</DateUtc></StartTime><FrequencyChanges><FrequencyChange><Frequency dt:dt=""r8"">3312880</Frequency><Timestamp dt:dt=""r8"">77196284473</Timestamp><Current dt:dt=""r8"">0</Current><DateUtc dt:dt=""string"">2022-11-09T14:42:32Z</DateUtc></FrequencyChange></FrequencyChanges></Clock>\n";TMS_Ibrahim-46-2;75.030;1.0.0.561;1;;-112463482;2.0.10.242;2.0.10.242;11/09/2022;09/11/2022 14:42;15:42:33;2.0.10.147;0;;-999999;21;16825;0;1;1102;17927;1;1;1;2;1;0;1;BlockProcFischi;BlockList;1;100;0;;-999999;13;20523;0;1;1804;22327;1;1;1;1;ProcFischi1;ListBlockFischi;23;1;1;0;0;3;Po4_B;125;2;op;3;2;40;1;23;2;0;TrialProc;2026;1339;Po4_B;89;1623;1712;ListFischi1;0;;2;203;220740;12;13;1650;222390;546;1;1650;1;692;283;1104;1;1
TMS_Ibrahim;46;2;"<?xml version=""1.0""?>\n<Clock xmlns:dt=""urn:schemas-microsoft-com:datatypes""><Description dt:dt=""string"">E-Prime Primary Realtime Clock</Description><StartTime><Timestamp dt:dt=""int"">0</Timestamp><DateUtc dt:dt=""string"">2022-11-09T14:42:32Z</DateUtc></StartTime><FrequencyChanges><FrequencyChange><Frequency dt:dt=""r8"">3312880</Frequency><Timestamp dt:dt=""r8"">77196284473</Timestamp><Current dt:dt=""r8"">0</Current><DateUtc dt:dt=""string"">2022-11-09T14:42:32Z</DateUtc></FrequencyChange></FrequencyChanges></Clock>\n";TMS_Ibrahim-46-2;75.030;1.0.0.561;1;;-112463482;2.0.10.242;2.0.10.242;11/09/2022;09/11/2022 14:42;15:42:33;2.0.10.147;0;;-999999;21;16825;0;1;1102;17927;1;1;1;2;1;0;1;BlockProcFischi;BlockList;1;100;0;;-999999;13;20523;0;1;1804;22327;1;1;1;1;ProcFischi1;ListBlockFischi;24;1;1;1;1;5;Pomod_B;225;4;ug;5;2;64;1;24;4;1;TrialProc;1767;1318;Pomod_B;223;1901;1678;ListFischi1;0;;2;203;228973;15;15;1928;230901;729;1;1928;1;839;392;1199;1;1
TMS_Ibrahim;46;2;"<?xml version=""1.0""?>\n<Clock xmlns:dt=""urn:schemas-microsoft-com:datatypes""><Description dt:dt=""string"">E-Prime Primary Realtime Clock</Description><StartTime><Timestamp dt:dt=""int"">0</Timestamp><DateUtc dt:dt=""string"">2022-11-09T14:42:32Z</DateUtc></StartTime><FrequencyChanges><FrequencyChange><Frequency dt:dt=""r8"">3312880</Frequency><Timestamp dt:dt=""r8"">77196284473</Timestamp><Current dt:dt=""r8"">0</Current><DateUtc dt:dt=""string"">2022-11-09T14:42:32Z</DateUtc></FrequencyChange></FrequencyChanges></Clock>\n";TMS_Ibrahim-46-2;75.030;1.0.0.561;1;;-112463482;2.0.10.242;2.0.10.242;11/09/2022;09/11/2022 14:42;15:42:33;2.0.10.147;0;;-999999;21;16825;0;1;1102;17927;1;1;1;2;1;0;1;BlockProcFischi;BlockList;1;100;0;;-999999;13;20523;0;1;1804;22327;1;1;1;1;ProcFischi1;ListBlockFischi;25;1;1;0;1;5;Po4_B;225;4;ug;5;2;56;1;25;4;1;TrialProc;2390;1341;Po4_B;111;1604;1714;ListFischi1;0;;2;203;237386;12;15;1627;239013;379;1;1627;1;569;540;1248;1;1
TMS_Ibrahim;46;2;"<?xml version=""1.0""?>\n<Clock xmlns:dt=""urn:schemas-microsoft-com:datatypes""><Description dt:dt=""string"">E-Prime Primary Realtime Clock</Description><StartTime><Timestamp dt:dt=""int"">0</Timestamp><DateUtc dt:dt=""string"">2022-11-09T14:42:32Z</DateUtc></StartTime><FrequencyChanges><FrequencyChange><Frequency dt:dt=""r8"">3312880</Frequency><Timestamp dt:dt=""r8"">77196284473</Timestamp><Current dt:dt=""r8"">0</Current><DateUtc dt:dt=""string"">2022-11-09T14:42:32Z</DateUtc></FrequencyChange></FrequencyChanges></Clock>\n";TMS_Ibrahim-46-2;75.030;1.0.0.561;1;;-112463482;2.0.10.242;2.0.10.242;11/09/2022;09/11/2022 14:42;15:42:33;2.0.10.147;0;;-999999;21;16825;0;1;1102;17927;1;1;1;2;1;0;1;BlockProcFischi;BlockList;1;100;0;;-999999;13;20523;0;1;1804;22327;1;1;1;1;ProcFischi1;ListBlockFischi;26;1;1;0;0;5;Po2_B;200;4;ug;5;2;59;1;26;4;1;TrialProc;2424;1583;Po2_B;110;1698;1808;ListFischi1;0;;2;203;245715;13;15;1730;247445;450;1;1730;1;580;312;1280;1;1
TMS_Ibrahim;46;2;"<?xml version=""1.0""?>\n<Clock xmlns:dt=""urn:schemas-microsoft-com:datatypes""><Description dt:dt=""string"">E-Prime Primary Realtime Clock</Description><StartTime><Timestamp dt:dt=""int"">0</Timestamp><DateUtc dt:dt=""string"">2022-11-09T14:42:32Z</DateUtc></StartTime><FrequencyChanges><FrequencyChange><Frequency dt:dt=""r8"">3312880</Frequency><Timestamp dt:dt=""r8"">77196284473</Timestamp><Current dt:dt=""r8"">0</Current><DateUtc dt:dt=""string"">2022-11-09T14:42:32Z</DateUtc></FrequencyChange></FrequencyChanges></Clock>\n";TMS_Ibrahim-46-2;75.030;1.0.0.561;1;;-112463482;2.0.10.242;2.0.10.242;11/09/2022;09/11/2022 14:42;15:42:33;2.0.10.147;0;;-999999;21;16825;0;1;1102;17927;1;1;1;2;1;0;1;BlockProcFischi;BlockList;1;100;0;;-999999;13;20523;0;1;1804;22327;1;1;1;1;ProcFischi1;ListBlockFischi;27;1;1;0;0;5;Po8_B;175;4;ug;5;2;53;1;27;4;1;TrialProc;2763;1243;Po8_B;174;1403;1577;ListFischi1;0;;2;203;253878;7;155;2927;256805;463;1;1423;1;769;270;960;1;1
TMS_Ibrahim;46;2;"<?xml version=""1.0""?>\n<Clock xmlns:dt=""urn:schemas-microsoft-com:datatypes""><Description dt:dt=""string"">E-Prime Primary Realtime Clock</Description><StartTime><Timestamp dt:dt=""int"">0</Timestamp><DateUtc dt:dt=""string"">2022-11-09T14:42:32Z</DateUtc></StartTime><FrequencyChanges><FrequencyChange><Frequency dt:dt=""r8"">3312880</Frequency><Timestamp dt:dt=""r8"">77196284473</Timestamp><Current dt:dt=""r8"">0</Current><DateUtc dt:dt=""string"">2022-11-09T14:42:32Z</DateUtc></FrequencyChange></FrequencyChanges></Clock>\n";TMS_Ibrahim-46-2;75.030;1.0.0.561;1;;-112463482;2.0.10.242;2.0.10.242;11/09/2022;09/11/2022 14:42;15:42:33;2.0.10.147;0;;-999999;21;16825;0;1;1102;17927;1;1;1;2;1;0;1;BlockProcFischi;BlockList;1;100;0;;-999999;13;20523;0;1;1804;22327;1;1;1;1;ProcFischi1;ListBlockFischi;28;1;2;0;1;5;Pr8_B;175;1;op;5;2;10;1;28;1;0;TrialProc;1823;713;Pr8_B;107;1633;1740;ListFischi1;0;;2;203;261656;13;15;1660;263316;317;1;1660;1;654;346;1343;1;1
TMS_Ibrahim;46;2;"<?xml version=""1.0""?>\n<Clock xmlns:dt=""urn:schemas-microsoft-com:datatypes""><Description dt:dt=""string"">E-Prime Primary Realtime Clock</Description><StartTime><Timestamp dt:dt=""int"">0</Timestamp><DateUtc dt:dt=""string"">2022-11-09T14:42:32Z</DateUtc></StartTime><FrequencyChanges><FrequencyChange><Frequency dt:dt=""r8"">3312880</Frequency><Timestamp dt:dt=""r8"">77196284473</Timestamp><Current dt:dt=""r8"">0</Current><DateUtc dt:dt=""string"">2022-11-09T14:42:32Z</DateUtc></FrequencyChange></FrequencyChanges></Clock>\n";TMS_Ibrahim-46-2;75.030;1.0.0.561;1;;-112463482;2.0.10.242;2.0.10.242;11/09/2022;09/11/2022 14:42;15:42:33;2.0.10.147;0;;-999999;21;16825;0;1;1102;17927;1;1;1;2;1;0;1;BlockProcFischi;BlockList;1;100;0;;-999999;13;20523;0;1;1804;22327;1;1;1;1;ProcFischi1;ListBlockFischi;29;1;1;0;0;5;Po3_B;175;4;ug;5;2;60;1;29;4;1;TrialProc;1834;1313;Po3_B;32;1612;1579;ListFischi1;0;;1;201;268868;11;155;2592;271460;528;1;1632;1;309;551;1104;1;1
TMS_Ibrahim;46;2;"<?xml version=""1.0""?>\n<Clock xmlns:dt=""urn:schemas-microsoft-com:datatypes""><Description dt:dt=""string"">E-Prime Primary Realtime Clock</Description><StartTime><Timestamp dt:dt=""int"">0</Timestamp><DateUtc dt:dt=""string"">2022-11-09T14:42:32Z</DateUtc></StartTime><FrequencyChanges><FrequencyChange><Frequency dt:dt=""r8"">3312880</Frequency><Timestamp dt:dt=""r8"">77196284473</Timestamp><Current dt:dt=""r8"">0</Current><DateUtc dt:dt=""string"">2022-11-09T14:42:32Z</DateUtc></FrequencyChange></FrequencyChanges></Clock>\n";TMS_Ibrahim-46-2;75.030;1.0.0.561;1;;-112463482;2.0.10.242;2.0.10.242;11/09/2022;09/11/2022 14:42;15:42:33;2.0.10.147;0;;-999999;21;16825;0;1;1102;17927;1;1;1;2;1;0;1;BlockProcFischi;BlockList;1;100;0;;-999999;13;20523;0;1;1804;22327;1;1;1;1;ProcFischi1;ListBlockFischi;30;1;2;0;0;3;Pr5_B;125;3;ug;3;2;25;1;30;3;1;TrialProc;2161;677;Pr5_B;278;1555;1276;ListFischi1;0;;2;203;276036;14;13;1584;277620;512;1;1584;1;1194;445;1072;1;1
TMS_Ibrahim;46;2;"<?xml version=""1.0""?>\n<Clock xmlns:dt=""urn:schemas-microsoft-com:datatypes""><Description dt:dt=""string"">E-Prime Primary Realtime Clock</Description><StartTime><Timestamp dt:dt=""int"">0</Timestamp><DateUtc dt:dt=""string"">2022-11-09T14:42:32Z</DateUtc></StartTime><FrequencyChanges><FrequencyChange><Frequency dt:dt=""r8"">3312880</Frequency><Timestamp dt:dt=""r8"">77196284473</Timestamp><Current dt:dt=""r8"">0</Current><DateUtc dt:dt=""string"">2022-11-09T14:42:32Z</DateUtc></FrequencyChange></FrequencyChanges></Clock>\n";TMS_Ibrahim-46-2;75.030;1.0.0.561;1;;-112463482;2.0.10.242;2.0.10.242;11/09/2022;09/11/2022 14:42;15:42:33;2.0.10.147;0;;-999999;21;16825;0;1;1102;17927;1;1;1;2;1;0;1;BlockProcFischi;BlockList;1;100;0;;-999999;13;20523;0;1;1804;22327;1;1;1;1;ProcFischi1;ListBlockFischi;31;1;2;0;1;3;Pr4_B;125;3;ug;3;2;19;1;31;3;1;TrialProc;2853;671;Pr4_B;209;1453;1244;ListFischi1;0;;2;203;284584;9;13;1484;286068;556;1;1484;1;777;410;928;1;1
TMS_Ibrahim;46;2;"<?xml version=""1.0""?>\n<Clock xmlns:dt=""urn:schemas-microsoft-com:datatypes""><Description dt:dt=""string"">E-Prime Primary Realtime Clock</Description><StartTime><Timestamp dt:dt=""int"">0</Timestamp><DateUtc dt:dt=""string"">2022-11-09T14:42:32Z</DateUtc></StartTime><FrequencyChanges><FrequencyChange><Frequency dt:dt=""r8"">3312880</Frequency><Timestamp dt:dt=""r8"">77196284473</Timestamp><Current dt:dt=""r8"">0</Current><DateUtc dt:dt=""string"">2022-11-09T14:42:32Z</DateUtc></FrequencyChange></FrequencyChanges></Clock>\n";TMS_Ibrahim-46-2;75.030;1.0.0.561;1;;-112463482;2.0.10.242;2.0.10.242;11/09/2022;09/11/2022 14:42;15:42:33;2.0.10.147;0;;-999999;21;16825;0;1;1102;17927;1;1;1;2;1;0;1;BlockProcFischi;BlockList;1;100;0;;-999999;13;20523;0;1;1804;22327;1;1;1;1;ProcFischi1;ListBlockFischi;32;1;1;0;0;3;Po2_B;100;2;op;3;2;38;1;32;2;0;TrialProc;4176;1576;Po2_B;82;1722;1803;ListFischi1;0;;2;203;293368;8;13;1755;295123;571;1;1755;1;1179;293;1184;1;1
TMS_Ibrahim;46;2;"<?xml version=""1.0""?>\n<Clock xmlns:dt=""urn:schemas-microsoft-com:datatypes""><Description dt:dt=""string"">E-Prime Primary Realtime Clock</Description><StartTime><Timestamp dt:dt=""int"">0</Timestamp><DateUtc dt:dt=""string"">2022-11-09T14:42:32Z</DateUtc></StartTime><FrequencyChanges><FrequencyChange><Frequency dt:dt=""r8"">3312880</Frequency><Timestamp dt:dt=""r8"">77196284473</Timestamp><Current dt:dt=""r8"">0</Current><DateUtc dt:dt=""string"">2022-11-09T14:42:32Z</DateUtc></FrequencyChange></FrequencyChanges></Clock>\n";TMS_Ibrahim-46-2;75.030;1.0.0.561;1;;-112463482;2.0.10.242;2.0.10.242;11/09/2022;09/11/2022 14:42;15:42:33;2.0.10.147;0;;-999999;21;16825;0;1;1102;17927;1;1;1;2;1;0;1;BlockProcFischi;BlockList;1;100;0;;-999999;13;20523;0;1;1804;22327;1;1;1;1;ProcFischi1;ListBlockFischi;33;1;2;0;0;5;Pr3_B;150;1;op;5;2;12;1;33;1;0;TrialProc;1907;710;Pr3_B;143;1567;1710;ListFischi1;0;;2;203;304657;8;155;3730;308387;387;1;1602;1;1457;543;1215;1;1
TMS_Ibrahim;46;2;"<?xml version=""1.0""?>\n<Clock xmlns:dt=""urn:schemas-microsoft-com:datatypes""><Description dt:dt=""string"">E-Prime Primary Realtime Clock</Description><StartTime><Timestamp dt:dt=""int"">0</Timestamp><DateUtc dt:dt=""string"">2022-11-09T14:42:32Z</DateUtc></StartTime><FrequencyChanges><FrequencyChange><Frequency dt:dt=""r8"">3312880</Frequency><Timestamp dt:dt=""r8"">77196284473</Timestamp><Current dt:dt=""r8"">0</Current><DateUtc dt:dt=""string"">2022-11-09T14:42:32Z</DateUtc></FrequencyChange></FrequencyChanges></Clock>\n";TMS_Ibrahim-46-2;75.030;1.0.0.561;1;;-112463482;2.0.10.242;2.0.10.242;11/09/2022;09/11/2022 14:42;15:42:33;2.0.10.147;0;;-999999;21;16825;0;1;1102;17927;1;1;1;2;1;0;1;BlockProcFischi;BlockList;1;100;0;;-999999;13;20523;0;1;1804;22327;1;1;1;1;ProcFischi1;ListBlockFischi;34;1;1;0;0;5;Po5_B;150;4;ug;5;2;57;1;34;4;1;TrialProc;4687;981;Po5_B;234;1707;1474;ListFischi1;0;;2;203;313223;12;15555;4235;317458;652;1;1740;1;4805;253;1088;1;1
TMS_Ibrahim;46;2;"<?xml version=""1.0""?>\n<Clock xmlns:dt=""urn:schemas-microsoft-com:datatypes""><Description dt:dt=""string"">E-Prime Primary Realtime Clock</Description><StartTime><Timestamp dt:dt=""int"">0</Timestamp><DateUtc dt:dt=""string"">2022-11-09T14:42:32Z</DateUtc></StartTime><FrequencyChanges><FrequencyChange><Frequency dt:dt=""r8"">3312880</Frequency><Timestamp dt:dt=""r8"">77196284473</Timestamp><Current dt:dt=""r8"">0</Current><DateUtc dt:dt=""string"">2022-11-09T14:42:32Z</DateUtc></FrequencyChange></FrequencyChanges></Clock>\n";TMS_Ibrahim-46-2;75.030;1.0.0.561;1;;-112463482;2.0.10.242;2.0.10.242;11/09/2022;09/11/2022 14:42;15:42:33;2.0.10.147;0;;-999999;21;16825;0;1;1102;17927;1;1;1;2;1;0;1;BlockProcFischi;BlockList;1;100;0;;-999999;13;20523;0;1;1804;22327;1;1;1;1;ProcFischi1;ListBlockFischi;35;1;2;1;2;3;Prmod_B;125;3;ug;3;2;32;1;35;3;1;TrialProc;4494;1309;Prmod_B;222;1862;1641;ListFischi1;0;;2;203;327009;8;13;1889;328898;561;1;1889;1;2722;222;1328;1;1
TMS_Ibrahim;46;2;"<?xml version=""1.0""?>\n<Clock xmlns:dt=""urn:schemas-microsoft-com:datatypes""><Description dt:dt=""string"">E-Prime Primary Realtime Clock</Description><StartTime><Timestamp dt:dt=""int"">0</Timestamp><DateUtc dt:dt=""string"">2022-11-09T14:42:32Z</DateUtc></StartTime><FrequencyChanges><FrequencyChange><Frequency dt:dt=""r8"">3312880</Frequency><Timestamp dt:dt=""r8"">77196284473</Timestamp><Current dt:dt=""r8"">0</Current><DateUtc dt:dt=""string"">2022-11-09T14:42:32Z</DateUtc></FrequencyChange></FrequencyChanges></Clock>\n";TMS_Ibrahim-46-2;75.030;1.0.0.561;1;;-112463482;2.0.10.242;2.0.10.242;11/09/2022;09/11/2022 14:42;15:42:33;2.0.10.147;0;;-999999;21;16825;0;1;1102;17927;1;1;1;2;1;0;1;BlockProcFischi;BlockList;1;100;0;;-999999;13;20523;0;1;1804;22327;1;1;1;1;ProcFischi1;ListBlockFischi;36;1;1;0;0;3;Po2_B;100;2;op;3;2;43;1;36;2;0;TrialProc;1482;1584;Po2_B;36;1776;1811;ListFischi1;0;;2;203;338235;17;13;1799;340034;583;1;1799;1;710;325;1216;1;1
TMS_Ibrahim;46;2;"<?xml version=""1.0""?>\n<Clock xmlns:dt=""urn:schemas-microsoft-com:datatypes""><Description dt:dt=""string"">E-Prime Primary Realtime Clock</Description><StartTime><Timestamp dt:dt=""int"">0</Timestamp><DateUtc dt:dt=""string"">2022-11-09T14:42:32Z</DateUtc></StartTime><FrequencyChanges><FrequencyChange><Frequency dt:dt=""r8"">3312880</Frequency><Timestamp dt:dt=""r8"">77196284473</Timestamp><Current dt:dt=""r8"">0</Current><DateUtc dt:dt=""string"">2022-11-09T14:42:32Z</DateUtc></FrequencyChange></FrequencyChanges></Clock>\n";TMS_Ibrahim-46-2;75.030;1.0.0.561;1;;-112463482;2.0.10.242;2.0.10.242;11/09/2022;09/11/2022 14:42;15:42:33;2.0.10.147;0;;-999999;21;16825;0;1;1102;17927;1;1;1;2;1;0;1;BlockProcFischi;BlockList;1;100;0;;-999999;13;20523;0;1;1804;22327;1;1;1;1;ProcFischi1;ListBlockFischi;37;1;1;0;0;3;Po3_B;75;2;op;3;2;39;1;37;2;0;TrialProc;1630;1314;Po3_B;0;1581;1581;ListFischi1;0;;2;203;347783;12;13;1610;349393;474;1;1610;1;662;369;1136;1;1
TMS_Ibrahim;46;2;"<?xml version=""1.0""?>\n<Clock xmlns:dt=""urn:schemas-microsoft-com:datatypes""><Description dt:dt=""string"">E-Prime Primary Realtime Clock</Description><StartTime><Timestamp dt:dt=""int"">0</Timestamp><DateUtc dt:dt=""string"">2022-11-09T14:42:32Z</DateUtc></StartTime><FrequencyChanges><FrequencyChange><Frequency dt:dt=""r8"">3312880</Frequency><Timestamp dt:dt=""r8"">77196284473</Timestamp><Current dt:dt=""r8"">0</Current><DateUtc dt:dt=""string"">2022-11-09T14:42:32Z</DateUtc></FrequencyChange></FrequencyChanges></Clock>\n";TMS_Ibrahim-46-2;75.030;1.0.0.561;1;;-112463482;2.0.10.242;2.0.10.242;11/09/2022;09/11/2022 14:42;15:42:33;2.0.10.147;0;;-999999;21;16825;0;1;1102;17927;1;1;1;2;1;0;1;BlockProcFischi;BlockList;1;100;0;;-999999;13;20523;0;1;1804;22327;1;1;1;1;ProcFischi1;ListBlockFischi;38;1;2;1;0;3;Prmod_B;150;3;ug;3;2;31;1;38;3;1;TrialProc;1246;1319;Prmod_B;134;1786;1652;ListFischi1;0;;2;203;357200;18;13;1809;359009;481;1;1809;1;483;256;1328;1;1
TMS_Ibrahim;46;2;"<?xml version=""1.0""?>\n<Clock xmlns:dt=""urn:schemas-microsoft-com:datatypes""><Description dt:dt=""string"">E-Prime Primary Realtime Clock</Description><StartTime><Timestamp dt:dt=""int"">0</Timestamp><DateUtc dt:dt=""string"">2022-11-09T14:42:32Z</DateUtc></StartTime><FrequencyChanges><FrequencyChange><Frequency dt:dt=""r8"">3312880</Frequency><Timestamp dt:dt=""r8"">77196284473</Timestamp><Current dt:dt=""r8"">0</Current><DateUtc dt:dt=""string"">2022-11-09T14:42:32Z</DateUtc></FrequencyChange></FrequencyChanges></Clock>\n";TMS_Ibrahim-46-2;75.030;1.0.0.561;1;;-112463482;2.0.10.242;2.0.10.242;11/09/2022;09/11/2022 14:42;15:42:33;2.0.10.147;0;;-999999;21;16825;0;1;1102;17927;1;1;1;2;1;0;1;BlockProcFischi;BlockList;1;100;0;;-999999;13;20523;0;1;1804;22327;1;1;1;1;ProcFischi1;ListBlockFischi;39;1;2;0;0;3;Pr3_B;150;3;ug;3;2;18;1;39;3;1;TrialProc;2900;710;Pr3_B;76;1636;1711;ListFischi1;0;;2;203;367471;10;13;1666;369137;498;1;1666;1;865;590;1168;1;1
TMS_Ibrahim;46;2;"<?xml version=""1.0""?>\n<Clock xmlns:dt=""urn:schemas-microsoft-com:datatypes""><Description dt:dt=""string"">E-Prime Primary Realtime Clock</Description><StartTime><Timestamp dt:dt=""int"">0</Timestamp><DateUtc dt:dt=""string"">2022-11-09T14:42:32Z</DateUtc></StartTime><FrequencyChanges><FrequencyChange><Frequency dt:dt=""r8"">3312880</Frequency><Timestamp dt:dt=""r8"">77196284473</Timestamp><Current dt:dt=""r8"">0</Current><DateUtc dt:dt=""string"">2022-11-09T14:42:32Z</DateUtc></FrequencyChange></FrequencyChanges></Clock>\n";TMS_Ibrahim-46-2;75.030;1.0.0.561;1;;-112463482;2.0.10.242;2.0.10.242;11/09/2022;09/11/2022 14:42;15:42:33;2.0.10.147;0;;-999999;21;16825;0;1;1102;17927;1;1;1;2;1;0;1;BlockProcFischi;BlockList;1;100;0;;-999999;13;20523;0;1;1804;22327;1;1;1;1;ProcFischi1;ListBlockFischi;40;1;1;0;1;5;Po8_B;150;4;ug;5;2;58;1;40;4;1;TrialProc;2199;1245;Po8_B;26;1605;1579;ListFischi1;0;;2;203;377267;10;155;1757;379024;429;1;1629;1;1128;524;1200;1;1
TMS_Ibrahim;46;2;"<?xml version=""1.0""?>\n<Clock xmlns:dt=""urn:schemas-microsoft-com:datatypes""><Description dt:dt=""string"">E-Prime Primary Realtime Clock</Description><StartTime><Timestamp dt:dt=""int"">0</Timestamp><DateUtc dt:dt=""string"">2022-11-09T14:42:32Z</DateUtc></StartTime><FrequencyChanges><FrequencyChange><Frequency dt:dt=""r8"">3312880</Frequency><Timestamp dt:dt=""r8"">77196284473</Timestamp><Current dt:dt=""r8"">0</Current><DateUtc dt:dt=""string"">2022-11-09T14:42:32Z</DateUtc></FrequencyChange></FrequencyChanges></Clock>\n";TMS_Ibrahim-46-2;75.030;1.0.0.561;1;;-112463482;2.0.10.242;2.0.10.242;11/09/2022;09/11/2022 14:42;15:42:33;2.0.10.147;0;;-999999;21;16825;0;1;1102;17927;1;1;1;2;1;0;1;BlockProcFischi;BlockList;1;100;0;;-999999;13;20523;0;1;1804;22327;1;1;1;1;ProcFischi1;ListBlockFischi;41;1;2;0;0;5;Pr5_B;150;1;op;5;2;14;1;41;1;0;TrialProc;2476;672;Pr5_B;225;1497;1273;ListFischi1;0;;2;203;385303;11;15;1529;386832;393;1;1529;1;617;589;1136;1;1
TMS_Ibrahim;46;2;"<?xml version=""1.0""?>\n<Clock xmlns:dt=""urn:schemas-microsoft-com:datatypes""><Description dt:dt=""string"">E-Prime Primary Realtime Clock</Description><StartTime><Timestamp dt:dt=""int"">0</Timestamp><DateUtc dt:dt=""string"">2022-11-09T14:42:32Z</DateUtc></StartTime><FrequencyChanges><FrequencyChange><Frequency dt:dt=""r8"">3312880</Frequency><Timestamp dt:dt=""r8"">77196284473</Timestamp><Current dt:dt=""r8"">0</Current><DateUtc dt:dt=""string"">2022-11-09T14:42:32Z</DateUtc></FrequencyChange></FrequencyChanges></Clock>\n";TMS_Ibrahim-46-2;75.030;1.0.0.561;1;;-112463482;2.0.10.242;2.0.10.242;11/09/2022;09/11/2022 14:42;15:42:33;2.0.10.147;0;;-999999;21;16825;0;1;1102;17927;1;1;1;2;1;0;1;BlockProcFischi;BlockList;1;100;0;;-999999;13;20523;0;1;1804;22327;1;1;1;1;ProcFischi1;ListBlockFischi;42;1;1;0;0;5;Po3_B;125;4;ug;5;2;55;1;42;4;1;TrialProc;3033;1320;Po3_B;84;1501;1586;ListFischi1;0;;2;203;393693;17;15;1523;395216;307;1;1523;1;725;495;1216;1;1
TMS_Ibrahim;46;2;"<?xml version=""1.0""?>\n<Clock xmlns:dt=""urn:schemas-microsoft-com:datatypes""><Description dt:dt=""string"">E-Prime Primary Realtime Clock</Description><StartTime><Timestamp dt:dt=""int"">0</Timestamp><DateUtc dt:dt=""string"">2022-11-09T14:42:32Z</DateUtc></StartTime><FrequencyChanges><FrequencyChange><Frequency dt:dt=""r8"">3312880</Frequency><Timestamp dt:dt=""r8"">77196284473</Timestamp><Current dt:dt=""r8"">0</Current><DateUtc dt:dt=""string"">2022-11-09T14:42:32Z</DateUtc></FrequencyChange></FrequencyChanges></Clock>\n";TMS_Ibrahim-46-2;75.030;1.0.0.561;1;;-112463482;2.0.10.242;2.0.10.242;11/09/2022;09/11/2022 14:42;15:42:33;2.0.10.147;0;;-999999;21;16825;0;1;1102;17927;1;1;1;2;1;0;1;BlockProcFischi;BlockList;1;100;0;;-999999;13;20523;0;1;1804;22327;1;1;1;1;ProcFischi1;ListBlockFischi;43;1;1;0;0;5;Po2_B;100;4;ug;5;2;49;1;43;4;1;TrialProc;2320;1581;Po2_B;163;1644;1806;ListFischi1;0;;2;203;402868;12;15;1675;404543;475;1;1675;1;776;484;1200;1;1
TMS_Ibrahim;46;2;"<?xml version=""1.0""?>\n<Clock xmlns:dt=""urn:schemas-microsoft-com:datatypes""><Description dt:dt=""string"">E-Prime Primary Realtime Clock</Description><StartTime><Timestamp dt:dt=""int"">0</Timestamp><DateUtc dt:dt=""string"">2022-11-09T14:42:32Z</DateUtc></StartTime><FrequencyChanges><FrequencyChange><Frequency dt:dt=""r8"">3312880</Frequency><Timestamp dt:dt=""r8"">77196284473</Timestamp><Current dt:dt=""r8"">0</Current><DateUtc dt:dt=""string"">2022-11-09T14:42:32Z</DateUtc></FrequencyChange></FrequencyChanges></Clock>\n";TMS_Ibrahim-46-2;75.030;1.0.0.561;1;;-112463482;2.0.10.242;2.0.10.242;11/09/2022;09/11/2022 14:42;15:42:33;2.0.10.147;0;;-999999;21;16825;0;1;1102;17927;1;1;1;2;1;0;1;BlockProcFischi;BlockList;1;100;0;;-999999;13;20523;0;1;1804;22327;1;1;1;1;ProcFischi1;ListBlockFischi;44;1;2;1;1;5;Prmod_B;150;1;op;5;2;16;1;44;1;0;TrialProc;2591;1308;Prmod_B;123;1764;1642;ListFischi1;0;;2;203;412335;8;155;2000;414335;416;1;1792;1;1048;329;1376;1;1
TMS_Ibrahim;46;2;"<?xml version=""1.0""?>\n<Clock xmlns:dt=""urn:schemas-microsoft-com:datatypes""><Description dt:dt=""string"">E-Prime Primary Realtime Clock</Description><StartTime><Timestamp dt:dt=""int"">0</Timestamp><DateUtc dt:dt=""string"">2022-11-09T14:42:32Z</DateUtc></StartTime><FrequencyChanges><FrequencyChange><Frequency dt:dt=""r8"">3312880</Frequency><Timestamp dt:dt=""r8"">77196284473</Timestamp><Current dt:dt=""r8"">0</Current><DateUtc dt:dt=""string"">2022-11-09T14:42:32Z</DateUtc></FrequencyChange></FrequencyChanges></Clock>\n";TMS_Ibrahim-46-2;75.030;1.0.0.561;1;;-112463482;2.0.10.242;2.0.10.242;11/09/2022;09/11/2022 14:42;15:42:33;2.0.10.147;0;;-999999;21;16825;0;1;1102;17927;1;1;1;2;1;0;1;BlockProcFischi;BlockList;1;100;0;;-999999;13;20523;0;1;1804;22327;1;1;1;1;ProcFischi1;ListBlockFischi;45;1;1;0;1;5;Po4_B;100;4;ug;5;2;61;1;45;4;1;TrialProc;2911;1346;Po4_B;46;1673;1719;ListFischi1;0;;2;203;421029;17;15;1706;422735;411;1;1706;1;1056;420;1295;1;1
TMS_Ibrahim;46;2;"<?xml version=""1.0""?>\n<Clock xmlns:dt=""urn:schemas-microsoft-com:datatypes""><Description dt:dt=""string"">E-Prime Primary Realtime Clock</Description><StartTime><Timestamp dt:dt=""int"">0</Timestamp><DateUtc dt:dt=""string"">2022-11-09T14:42:32Z</DateUtc></StartTime><FrequencyChanges><FrequencyChange><Frequency dt:dt=""r8"">3312880</Frequency><Timestamp dt:dt=""r8"">77196284473</Timestamp><Current dt:dt=""r8"">0</Current><DateUtc dt:dt=""string"">2022-11-09T14:42:32Z</DateUtc></FrequencyChange></FrequencyChanges></Clock>\n";TMS_Ibrahim-46-2;75.030;1.0.0.561;1;;-112463482;2.0.10.242;2.0.10.242;11/09/2022;09/11/2022 14:42;15:42:33;2.0.10.147;0;;-999999;21;16825;0;1;1102;17927;1;1;1;2;1;0;1;BlockProcFischi;BlockList;1;100;0;;-999999;13;20523;0;1;1804;22327;1;1;1;1;ProcFischi1;ListBlockFischi;46;1;2;0;0;5;Pr4_B;125;1;op;5;2;3;1;46;1;0;TrialProc;1641;679;Pr4_B;121;1373;1251;ListFischi1;0;;2;203;430826;17;15;1396;432222;372;1;1396;1;948;315;1024;1;1
TMS_Ibrahim;46;2;"<?xml version=""1.0""?>\n<Clock xmlns:dt=""urn:schemas-microsoft-com:datatypes""><Description dt:dt=""string"">E-Prime Primary Realtime Clock</Description><StartTime><Timestamp dt:dt=""int"">0</Timestamp><DateUtc dt:dt=""string"">2022-11-09T14:42:32Z</DateUtc></StartTime><FrequencyChanges><FrequencyChange><Frequency dt:dt=""r8"">3312880</Frequency><Timestamp dt:dt=""r8"">77196284473</Timestamp><Current dt:dt=""r8"">0</Current><DateUtc dt:dt=""string"">2022-11-09T14:42:32Z</DateUtc></FrequencyChange></FrequencyChanges></Clock>\n";TMS_Ibrahim-46-2;75.030;1.0.0.561;1;;-112463482;2.0.10.242;2.0.10.242;11/09/2022;09/11/2022 14:42;15:42:33;2.0.10.147;0;;-999999;21;16825;0;1;1102;17927;1;1;1;2;1;0;1;BlockProcFischi;BlockList;1;100;0;;-999999;13;20523;0;1;1804;22327;1;1;1;1;ProcFischi1;ListBlockFischi;47;1;2;0;0;5;Pr3_B;125;1;op;5;2;7;1;47;1;0;TrialProc;2510;713;Pr3_B;43;1755;1713;ListFischi1;0;;2;203;439668;11;15;1786;441454;586;1;1786;1;1000;252;1200;1;1
TMS_Ibrahim;46;2;"<?xml version=""1.0""?>\n<Clock xmlns:dt=""urn:schemas-microsoft-com:datatypes""><Description dt:dt=""string"">E-Prime Primary Realtime Clock</Description><StartTime><Timestamp dt:dt=""int"">0</Timestamp><DateUtc dt:dt=""string"">2022-11-09T14:42:32Z</DateUtc></StartTime><FrequencyChanges><FrequencyChange><Frequency dt:dt=""r8"">3312880</Frequency><Timestamp dt:dt=""r8"">77196284473</Timestamp><Current dt:dt=""r8"">0</Current><DateUtc dt:dt=""string"">2022-11-09T14:42:32Z</DateUtc></FrequencyChange></FrequencyChanges></Clock>\n";TMS_Ibrahim-46-2;75.030;1.0.0.561;1;;-112463482;2.0.10.242;2.0.10.242;11/09/2022;09/11/2022 14:42;15:42:33;2.0.10.147;0;;-999999;21;16825;0;1;1102;17927;1;1;1;2;1;0;1;BlockProcFischi;BlockList;1;100;0;;-999999;13;20523;0;1;1804;22327;1;1;1;1;ProcFischi1;ListBlockFischi;48;1;2;0;0;5;Pr4_B;100;1;op;5;2;8;1;48;1;0;TrialProc;3247;669;Pr4_B;245;1489;1243;ListFischi1;0;;2;203;448148;8;155;1834;449982;442;1;1514;1;3642;289;1072;1;1
TMS_Ibrahim;46;2;"<?xml version=""1.0""?>\n<Clock xmlns:dt=""urn:schemas-microsoft-com:datatypes""><Description dt:dt=""string"">E-Prime Primary Realtime Clock</Description><StartTime><Timestamp dt:dt=""int"">0</Timestamp><DateUtc dt:dt=""string"">2022-11-09T14:42:32Z</DateUtc></StartTime><FrequencyChanges><FrequencyChange><Frequency dt:dt=""r8"">3312880</Frequency><Timestamp dt:dt=""r8"">77196284473</Timestamp><Current dt:dt=""r8"">0</Current><DateUtc dt:dt=""string"">2022-11-09T14:42:32Z</DateUtc></FrequencyChange></FrequencyChanges></Clock>\n";TMS_Ibrahim-46-2;75.030;1.0.0.561;1;;-112463482;2.0.10.242;2.0.10.242;11/09/2022;09/11/2022 14:42;15:42:33;2.0.10.147;0;;-999999;21;16825;0;1;1102;17927;1;1;1;2;1;0;1;BlockProcFischi;BlockList;1;100;0;;-999999;13;20523;0;1;1804;22327;1;1;1;1;ProcFischi1;ListBlockFischi;49;1;1;0;0;5;Po3_B;75;4;ug;5;2;50;1;49;4;1;TrialProc;1819;1324;Po3_B;12;1578;1591;ListFischi1;0;;5;210;460218;13;15;1603;461821;483;1;1603;1;1851;282;1120;1;1
TMS_Ibrahim;46;2;"<?xml version=""1.0""?>\n<Clock xmlns:dt=""urn:schemas-microsoft-com:datatypes""><Description dt:dt=""string"">E-Prime Primary Realtime Clock</Description><StartTime><Timestamp dt:dt=""int"">0</Timestamp><DateUtc dt:dt=""string"">2022-11-09T14:42:32Z</DateUtc></StartTime><FrequencyChanges><FrequencyChange><Frequency dt:dt=""r8"">3312880</Frequency><Timestamp dt:dt=""r8"">77196284473</Timestamp><Current dt:dt=""r8"">0</Current><DateUtc dt:dt=""string"">2022-11-09T14:42:32Z</DateUtc></FrequencyChange></FrequencyChanges></Clock>\n";TMS_Ibrahim-46-2;75.030;1.0.0.561;1;;-112463482;2.0.10.242;2.0.10.242;11/09/2022;09/11/2022 14:42;15:42:33;2.0.10.147;0;;-999999;21;16825;0;1;1102;17927;1;1;1;2;1;0;1;BlockProcFischi;BlockList;1;100;0;;-999999;13;20523;0;1;1804;22327;1;1;1;1;ProcFischi1;ListBlockFischi;50;1;2;0;0;3;Pr2_B;125;3;ug;3;2;22;1;50;3;1;TrialProc;1744;713;Pr2_B;129;1374;1245;ListFischi1;0;;2;203;469670;11;133;1719;471389;439;1;1399;1;2095;475;960;1;1
TMS_Ibrahim;46;2;"<?xml version=""1.0""?>\n<Clock xmlns:dt=""urn:schemas-microsoft-com:datatypes""><Description dt:dt=""string"">E-Prime Primary Realtime Clock</Description><StartTime><Timestamp dt:dt=""int"">0</Timestamp><DateUtc dt:dt=""string"">2022-11-09T14:42:32Z</DateUtc></StartTime><FrequencyChanges><FrequencyChange><Frequency dt:dt=""r8"">3312880</Frequency><Timestamp dt:dt=""r8"">77196284473</Timestamp><Current dt:dt=""r8"">0</Current><DateUtc dt:dt=""string"">2022-11-09T14:42:32Z</DateUtc></FrequencyChange></FrequencyChanges></Clock>\n";TMS_Ibrahim-46-2;75.030;1.0.0.561;1;;-112463482;2.0.10.242;2.0.10.242;11/09/2022;09/11/2022 14:42;15:42:33;2.0.10.147;0;;-999999;21;16825;0;1;1102;17927;1;1;1;2;1;0;1;BlockProcFischi;BlockList;1;100;0;;-999999;13;20523;0;1;1804;22327;1;1;1;1;ProcFischi1;ListBlockFischi;51;1;2;0;1;5;Pr2_B;100;1;op;5;2;1;1;51;1;0;TrialProc;2733;714;Pr2_B;171;1417;1247;ListFischi1;0;;2;203;478105;12;15;1444;479549;517;1;1444;1;1442;449;927;1;1
TMS_Ibrahim;46;2;"<?xml version=""1.0""?>\n<Clock xmlns:dt=""urn:schemas-microsoft-com:datatypes""><Description dt:dt=""string"">E-Prime Primary Realtime Clock</Description><StartTime><Timestamp dt:dt=""int"">0</Timestamp><DateUtc dt:dt=""string"">2022-11-09T14:42:32Z</DateUtc></StartTime><FrequencyChanges><FrequencyChange><Frequency dt:dt=""r8"">3312880</Frequency><Timestamp dt:dt=""r8"">77196284473</Timestamp><Current dt:dt=""r8"">0</Current><DateUtc dt:dt=""string"">2022-11-09T14:42:32Z</DateUtc></FrequencyChange></FrequencyChanges></Clock>\n";TMS_Ibrahim-46-2;75.030;1.0.0.561;1;;-112463482;2.0.10.242;2.0.10.242;11/09/2022;09/11/2022 14:42;15:42:33;2.0.10.147;0;;-999999;21;16825;0;1;1102;17927;1;1;1;2;1;0;1;BlockProcFischi;BlockList;1;100;0;;-999999;13;20523;0;1;1804;22327;1;1;1;1;ProcFischi1;ListBlockFischi;52;1;2;0;0;3;Pr4_B;125;3;ug;3;2;24;1;52;3;1;TrialProc;2768;671;Pr4_B;109;1352;1243;ListFischi1;0;;2;203;486879;8;13;1373;488252;430;1;1373;1;1751;489;943;1;1
TMS_Ibrahim;46;2;"<?xml version=""1.0""?>\n<Clock xmlns:dt=""urn:schemas-microsoft-com:datatypes""><Description dt:dt=""string"">E-Prime Primary Realtime Clock</Description><StartTime><Timestamp dt:dt=""int"">0</Timestamp><DateUtc dt:dt=""string"">2022-11-09T14:42:32Z</DateUtc></StartTime><FrequencyChanges><FrequencyChange><Frequency dt:dt=""r8"">3312880</Frequency><Timestamp dt:dt=""r8"">77196284473</Timestamp><Current dt:dt=""r8"">0</Current><DateUtc dt:dt=""string"">2022-11-09T14:42:32Z</DateUtc></FrequencyChange></FrequencyChanges></Clock>\n";TMS_Ibrahim-46-2;75.030;1.0.0.561;1;;-112463482;2.0.10.242;2.0.10.242;11/09/2022;09/11/2022 14:42;15:42:33;2.0.10.147;0;;-999999;21;16825;0;1;1102;17927;1;1;1;2;1;0;1;BlockProcFischi;BlockList;1;100;0;;-999999;13;20523;0;1;1804;22327;1;1;1;1;ProcFischi1;ListBlockFischi;53;1;1;0;0;5;Po5_B;50;4;ug;5;2;52;1;53;4;1;TrialProc;1769;975;Po5_B;44;1422;1467;ListFischi1;0;;2;203;496090;7;15;1458;497548;307;1;1458;1;1661;523;1151;1;1
TMS_Ibrahim;46;2;"<?xml version=""1.0""?>\n<Clock xmlns:dt=""urn:schemas-microsoft-com:datatypes""><Description dt:dt=""string"">E-Prime Primary Realtime Clock</Description><StartTime><Timestamp dt:dt=""int"">0</Timestamp><DateUtc dt:dt=""string"">2022-11-09T14:42:32Z</DateUtc></StartTime><FrequencyChanges><FrequencyChange><Frequency dt:dt=""r8"">3312880</Frequency><Timestamp dt:dt=""r8"">77196284473</Timestamp><Current dt:dt=""r8"">0</Current><DateUtc dt:dt=""string"">2022-11-09T14:42:32Z</DateUtc></FrequencyChange></FrequencyChanges></Clock>\n";TMS_Ibrahim-46-2;75.030;1.0.0.561;1;;-112463482;2.0.10.242;2.0.10.242;11/09/2022;09/11/2022 14:42;15:42:33;2.0.10.147;0;;-999999;21;16825;0;1;1102;17927;1;1;1;2;1;0;1;BlockProcFischi;BlockList;1;100;0;;-999999;13;20523;0;1;1804;22327;1;1;1;1;ProcFischi1;ListBlockFischi;54;1;1;0;0;3;Po8_B;50;2;op;3;2;42;1;54;2;0;TrialProc;2925;1247;Po8_B;99;1480;1580;ListFischi1;0;;2;203;504695;12;13;1509;506204;437;1;1509;1;311;358;1072;1;1
TMS_Ibrahim;46;2;"<?xml version=""1.0""?>\n<Clock xmlns:dt=""urn:schemas-microsoft-com:datatypes""><Description dt:dt=""string"">E-Prime Primary Realtime Clock</Description><StartTime><Timestamp dt:dt=""int"">0</Timestamp><DateUtc dt:dt=""string"">2022-11-09T14:42:32Z</DateUtc></StartTime><FrequencyChanges><FrequencyChange><Frequency dt:dt=""r8"">3312880</Frequency><Timestamp dt:dt=""r8"">77196284473</Timestamp><Current dt:dt=""r8"">0</Current><DateUtc dt:dt=""string"">2022-11-09T14:42:32Z</DateUtc></FrequencyChange></FrequencyChanges></Clock>\n";TMS_Ibrahim-46-2;75.030;1.0.0.561;1;;-112463482;2.0.10.242;2.0.10.242;11/09/2022;09/11/2022 14:42;15:42:33;2.0.10.147;0;;-999999;21;16825;0;1;1102;17927;1;1;1;2;1;0;1;BlockProcFischi;BlockList;1;100;0;;-999999;13;20523;0;1;1804;22327;1;1;1;1;ProcFischi1;ListBlockFischi;55;1;1;0;1;3;Po2_B;50;2;op;3;2;33;1;55;2;0;TrialProc;1770;1584;Po2_B;211;2022;1811;ListFischi1;0;;2;203;513554;16;13;2057;515611;602;1;2057;1;861;383;1455;1;1
TMS_Ibrahim;46;2;"<?xml version=""1.0""?>\n<Clock xmlns:dt=""urn:schemas-microsoft-com:datatypes""><Description dt:dt=""string"">E-Prime Primary Realtime Clock</Description><StartTime><Timestamp dt:dt=""int"">0</Timestamp><DateUtc dt:dt=""string"">2022-11-09T14:42:32Z</DateUtc></StartTime><FrequencyChanges><FrequencyChange><Frequency dt:dt=""r8"">3312880</Frequency><Timestamp dt:dt=""r8"">77196284473</Timestamp><Current dt:dt=""r8"">0</Current><DateUtc dt:dt=""string"">2022-11-09T14:42:32Z</DateUtc></FrequencyChange></FrequencyChanges></Clock>\n";TMS_Ibrahim-46-2;75.030;1.0.0.561;1;;-112463482;2.0.10.242;2.0.10.242;11/09/2022;09/11/2022 14:42;15:42:33;2.0.10.147;0;;-999999;21;16825;0;1;1102;17927;1;1;1;2;1;0;1;BlockProcFischi;BlockList;1;100;0;;-999999;13;20523;0;1;1804;22327;1;1;1;1;ProcFischi1;ListBlockFischi;56;1;1;0;2;3;Po8_B;50;2;op;3;2;37;1;56;2;0;TrialProc;2288;1242;Po8_B;312;1887;1575;ListFischi1;0;;2;203;522467;6;13;1912;524379;408;1;1912;1;914;211;1504;1;1
TMS_Ibrahim;46;2;"<?xml version=""1.0""?>\n<Clock xmlns:dt=""urn:schemas-microsoft-com:datatypes""><Description dt:dt=""string"">E-Prime Primary Realtime Clock</Description><StartTime><Timestamp dt:dt=""int"">0</Timestamp><DateUtc dt:dt=""string"">2022-11-09T14:42:32Z</DateUtc></StartTime><FrequencyChanges><FrequencyChange><Frequency dt:dt=""r8"">3312880</Frequency><Timestamp dt:dt=""r8"">77196284473</Timestamp><Current dt:dt=""r8"">0</Current><DateUtc dt:dt=""string"">2022-11-09T14:42:32Z</DateUtc></FrequencyChange></FrequencyChanges></Clock>\n";TMS_Ibrahim-46-2;75.030;1.0.0.561;1;;-112463482;2.0.10.242;2.0.10.242;11/09/2022;09/11/2022 14:42;15:42:33;2.0.10.147;0;;-999999;21;16825;0;1;1102;17927;1;1;1;2;1;0;1;BlockProcFischi;BlockList;1;100;0;;-999999;13;20523;0;1;1804;22327;1;1;1;1;ProcFischi1;ListBlockFischi;57;1;1;0;0;5;Po4_B;50;4;ug;5;2;51;1;57;4;1;TrialProc;1374;1338;Po4_B;138;1572;1710;ListFischi1;0;;2;203;531953;10;155;3082;535035;602;1;1594;1;792;526;992;1;1
TMS_Ibrahim;46;2;"<?xml version=""1.0""?>\n<Clock xmlns:dt=""urn:schemas-microsoft-com:datatypes""><Description dt:dt=""string"">E-Prime Primary Realtime Clock</Description><StartTime><Timestamp dt:dt=""int"">0</Timestamp><DateUtc dt:dt=""string"">2022-11-09T14:42:32Z</DateUtc></StartTime><FrequencyChanges><FrequencyChange><Frequency dt:dt=""r8"">3312880</Frequency><Timestamp dt:dt=""r8"">77196284473</Timestamp><Current dt:dt=""r8"">0</Current><DateUtc dt:dt=""string"">2022-11-09T14:42:32Z</DateUtc></FrequencyChange></FrequencyChanges></Clock>\n";TMS_Ibrahim-46-2;75.030;1.0.0.561;1;;-112463482;2.0.10.242;2.0.10.242;11/09/2022;09/11/2022 14:42;15:42:33;2.0.10.147;0;;-999999;21;16825;0;1;1102;17927;1;1;1;2;1;0;1;BlockProcFischi;BlockList;1;100;0;;-999999;13;20523;0;1;1804;22327;1;1;1;1;ProcFischi1;ListBlockFischi;58;1;2;1;2;5;Prmod_B;100;1;op;5;2;15;1;58;1;0;TrialProc;2636;1308;Prmod_B;167;1809;1642;ListFischi1;0;;2;201;539460;7;15;1831;541291;599;1;1831;1;1018;550;1232;1;1
TMS_Ibrahim;46;2;"<?xml version=""1.0""?>\n<Clock xmlns:dt=""urn:schemas-microsoft-com:datatypes""><Description dt:dt=""string"">E-Prime Primary Realtime Clock</Description><StartTime><Timestamp dt:dt=""int"">0</Timestamp><DateUtc dt:dt=""string"">2022-11-09T14:42:32Z</DateUtc></StartTime><FrequencyChanges><FrequencyChange><Frequency dt:dt=""r8"">3312880</Frequency><Timestamp dt:dt=""r8"">77196284473</Timestamp><Current dt:dt=""r8"">0</Current><DateUtc dt:dt=""string"">2022-11-09T14:42:32Z</DateUtc></FrequencyChange></FrequencyChanges></Clock>\n";TMS_Ibrahim-46-2;75.030;1.0.0.561;1;;-112463482;2.0.10.242;2.0.10.242;11/09/2022;09/11/2022 14:42;15:42:33;2.0.10.147;0;;-999999;21;16825;0;1;1102;17927;1;1;1;2;1;0;1;BlockProcFischi;BlockList;1;100;0;;-999999;13;20523;0;1;1804;22327;1;1;1;1;ProcFischi1;ListBlockFischi;59;1;2;0;0;3;Pr3_B;125;3;ug;3;2;28;1;59;3;1;TrialProc;1970;718;Pr3_B;193;1911;1718;ListFischi1;0;;2;203;548421;15;133;2677;551098;645;1;1941;1;851;422;1296;1;1
TMS_Ibrahim;46;2;"<?xml version=""1.0""?>\n<Clock xmlns:dt=""urn:schemas-microsoft-com:datatypes""><Description dt:dt=""string"">E-Prime Primary Realtime Clock</Description><StartTime><Timestamp dt:dt=""int"">0</Timestamp><DateUtc dt:dt=""string"">2022-11-09T14:42:32Z</DateUtc></StartTime><FrequencyChanges><FrequencyChange><Frequency dt:dt=""r8"">3312880</Frequency><Timestamp dt:dt=""r8"">77196284473</Timestamp><Current dt:dt=""r8"">0</Current><DateUtc dt:dt=""string"">2022-11-09T14:42:32Z</DateUtc></FrequencyChange></FrequencyChanges></Clock>\n";TMS_Ibrahim-46-2;75.030;1.0.0.561;1;;-112463482;2.0.10.242;2.0.10.242;11/09/2022;09/11/2022 14:42;15:42:33;2.0.10.147;0;;-999999;21;16825;0;1;1102;17927;1;1;1;2;1;0;1;BlockProcFischi;BlockList;1;100;0;;-999999;13;20523;0;1;1804;22327;1;1;1;1;ProcFischi1;ListBlockFischi;60;1;1;0;0;3;Po5_B;75;2;op;3;2;41;1;60;2;0;TrialProc;3375;976;Po5_B;140;1610;1470;ListFischi1;0;;2;203;556212;8;13333;2982;559194;439;1;1638;1;679;585;1199;1;1
TMS_Ibrahim;46;2;"<?xml version=""1.0""?>\n<Clock xmlns:dt=""urn:schemas-microsoft-com:datatypes""><Description dt:dt=""string"">E-Prime Primary Realtime Clock</Description><StartTime><Timestamp dt:dt=""int"">0</Timestamp><DateUtc dt:dt=""string"">2022-11-09T14:42:32Z</DateUtc></StartTime><FrequencyChanges><FrequencyChange><Frequency dt:dt=""r8"">3312880</Frequency><Timestamp dt:dt=""r8"">77196284473</Timestamp><Current dt:dt=""r8"">0</Current><DateUtc dt:dt=""string"">2022-11-09T14:42:32Z</DateUtc></FrequencyChange></FrequencyChanges></Clock>\n";TMS_Ibrahim-46-2;75.030;1.0.0.561;1;;-112463482;2.0.10.242;2.0.10.242;11/09/2022;09/11/2022 14:42;15:42:33;2.0.10.147;0;;-999999;21;16825;0;1;1102;17927;1;1;1;2;1;0;1;BlockProcFischi;BlockList;1;100;0;;-999999;13;20523;0;1;1804;22327;1;1;1;1;ProcFischi1;ListBlockFischi;61;1;2;0;0;5;Pr3_B;125;1;op;5;2;2;1;61;1;0;TrialProc;2049;710;Pr3_B;7;1717;1709;ListFischi1;0;;2;203;565182;8;15;1740;566922;652;1;1740;1;819;295;1088;1;1
TMS_Ibrahim;46;2;"<?xml version=""1.0""?>\n<Clock xmlns:dt=""urn:schemas-microsoft-com:datatypes""><Description dt:dt=""string"">E-Prime Primary Realtime Clock</Description><StartTime><Timestamp dt:dt=""int"">0</Timestamp><DateUtc dt:dt=""string"">2022-11-09T14:42:32Z</DateUtc></StartTime><FrequencyChanges><FrequencyChange><Frequency dt:dt=""r8"">3312880</Frequency><Timestamp dt:dt=""r8"">77196284473</Timestamp><Current dt:dt=""r8"">0</Current><DateUtc dt:dt=""string"">2022-11-09T14:42:32Z</DateUtc></FrequencyChange></FrequencyChanges></Clock>\n";TMS_Ibrahim-46-2;75.030;1.0.0.561;1;;-112463482;2.0.10.242;2.0.10.242;11/09/2022;09/11/2022 14:42;15:42:33;2.0.10.147;0;;-999999;21;16825;0;1;1102;17927;1;1;1;2;1;0;1;BlockProcFischi;BlockList;1;100;0;;-999999;13;20523;0;1;1804;22327;1;1;1;1;ProcFischi1;ListBlockFischi;62;1;2;0;1;3;Pr2_B;125;3;ug;3;2;17;1;62;3;1;TrialProc;3238;713;Pr2_B;303;4660;1246;ListFischi1;0;;2;203;574149;11;1333;4260;578409;468;1;1572;1;4750;427;1104;1;1
TMS_Ibrahim;46;2;"<?xml version=""1.0""?>\n<Clock xmlns:dt=""urn:schemas-microsoft-com:datatypes""><Description dt:dt=""string"">E-Prime Primary Realtime Clock</Description><StartTime><Timestamp dt:dt=""int"">0</Timestamp><DateUtc dt:dt=""string"">2022-11-09T14:42:32Z</DateUtc></StartTime><FrequencyChanges><FrequencyChange><Frequency dt:dt=""r8"">3312880</Frequency><Timestamp dt:dt=""r8"">77196284473</Timestamp><Current dt:dt=""r8"">0</Current><DateUtc dt:dt=""string"">2022-11-09T14:42:32Z</DateUtc></FrequencyChange></FrequencyChanges></Clock>\n";TMS_Ibrahim-46-2;75.030;1.0.0.561;1;;-112463482;2.0.10.242;2.0.10.242;11/09/2022;09/11/2022 14:42;15:42:33;2.0.10.147;0;;-999999;21;16825;0;1;1102;17927;1;1;1;2;1;0;1;BlockProcFischi;BlockList;1;100;0;;-999999;13;20523;0;1;1804;22327;1;1;1;1;ProcFischi1;ListBlockFischi;63;1;1;1;1;3;Pomod_B;75;2;op;3;2;48;1;63;2;0;TrialProc;3610;1316;Pomod_B;375;2051;1676;ListFischi1;0;;2;203;586032;16;13;2073;588105;681;1;2073;1;2382;324;1392;1;1
TMS_Ibrahim;46;2;"<?xml version=""1.0""?>\n<Clock xmlns:dt=""urn:schemas-microsoft-com:datatypes""><Description dt:dt=""string"">E-Prime Primary Realtime Clock</Description><StartTime><Timestamp dt:dt=""int"">0</Timestamp><DateUtc dt:dt=""string"">2022-11-09T14:42:32Z</DateUtc></StartTime><FrequencyChanges><FrequencyChange><Frequency dt:dt=""r8"">3312880</Frequency><Timestamp dt:dt=""r8"">77196284473</Timestamp><Current dt:dt=""r8"">0</Current><DateUtc dt:dt=""string"">2022-11-09T14:42:32Z</DateUtc></FrequencyChange></FrequencyChanges></Clock>\n";TMS_Ibrahim-46-2;75.030;1.0.0.561;1;;-112463482;2.0.10.242;2.0.10.242;11/09/2022;09/11/2022 14:42;15:42:33;2.0.10.147;0;;-999999;21;16825;0;1;1102;17927;1;1;1;2;1;0;1;BlockProcFischi;BlockList;1;100;0;;-999999;13;20523;0;1;1804;22327;1;1;1;1;ProcFischi1;ListBlockFischi;64;1;1;1;2;3;Pomod_B;75;2;op;3;2;47;1;64;2;0;TrialProc;4086;1316;Pomod_B;200;1876;1676;ListFischi1;0;;2;203;597896;14;13;1905;599801;689;1;1905;1;1552;562;1216;1;1
TMS_Ibrahim;46;4;"<?xml version=""1.0""?>\n<Clock xmlns:dt=""urn:schemas-microsoft-com:datatypes""><Description dt:dt=""string"">E-Prime Primary Realtime Clock</Description><StartTime><Timestamp dt:dt=""int"">0</Timestamp><DateUtc dt:dt=""string"">2022-11-09T15:40:33Z</DateUtc></StartTime><FrequencyChanges><FrequencyChange><Frequency dt:dt=""r8"">3312880</Frequency><Timestamp dt:dt=""r8"">88727974287</Timestamp><Current dt:dt=""r8"">0</Current><DateUtc dt:dt=""string"">2022-11-09T15:40:33Z</DateUtc></FrequencyChange></FrequencyChanges></Clock>\n";TMS_Ibrahim-46-4;75.031;1.0.0.561;1;ve;-1465709290;2.0.10.242;2.0.10.242;11/09/2022;09/11/2022 15:40;16:40:34;2.0.10.147;0;;-999999;41;42590;0;1;1225;43815;1;1;1;2;1;0;1;BlockProcFischi;BlockList;1;100;0;;-999999;32;45360;0;1;644;46004;1;1;1;1;ProcFischi1;ListBlockFischi;1;1;2;0;0;5;Pr4_B;250;1;op;5;2;8;1;1;1;0;TrialProc;636;698;Pr4_B;349;1621;1271;ListFischi1;0;;5;210;48775;27;15;1657;50432;649;1;1657;1;758;550;1008;1;1
TMS_Ibrahim;46;4;"<?xml version=""1.0""?>\n<Clock xmlns:dt=""urn:schemas-microsoft-com:datatypes""><Description dt:dt=""string"">E-Prime Primary Realtime Clock</Description><StartTime><Timestamp dt:dt=""int"">0</Timestamp><DateUtc dt:dt=""string"">2022-11-09T15:40:33Z</DateUtc></StartTime><FrequencyChanges><FrequencyChange><Frequency dt:dt=""r8"">3312880</Frequency><Timestamp dt:dt=""r8"">88727974287</Timestamp><Current dt:dt=""r8"">0</Current><DateUtc dt:dt=""string"">2022-11-09T15:40:33Z</DateUtc></FrequencyChange></FrequencyChanges></Clock>\n";TMS_Ibrahim-46-4;75.031;1.0.0.561;1;ve;-1465709290;2.0.10.242;2.0.10.242;11/09/2022;09/11/2022 15:40;16:40:34;2.0.10.147;0;;-999999;41;42590;0;1;1225;43815;1;1;1;2;1;0;1;BlockProcFischi;BlockList;1;100;0;;-999999;32;45360;0;1;644;46004;1;1;1;1;ProcFischi1;ListBlockFischi;2;1;2;1;0;3;Prmod_B;250;3;ug;3;2;31;1;2;3;1;TrialProc;813;1317;Prmod_B;174;1823;1649;ListFischi1;0;;1;201;55650;16;13;1854;57504;542;1;1854;1;283;483;1312;1;1
TMS_Ibrahim;46;4;"<?xml version=""1.0""?>\n<Clock xmlns:dt=""urn:schemas-microsoft-com:datatypes""><Description dt:dt=""string"">E-Prime Primary Realtime Clock</Description><StartTime><Timestamp dt:dt=""int"">0</Timestamp><DateUtc dt:dt=""string"">2022-11-09T15:40:33Z</DateUtc></StartTime><FrequencyChanges><FrequencyChange><Frequency dt:dt=""r8"">3312880</Frequency><Timestamp dt:dt=""r8"">88727974287</Timestamp><Current dt:dt=""r8"">0</Current><DateUtc dt:dt=""string"">2022-11-09T15:40:33Z</DateUtc></FrequencyChange></FrequencyChanges></Clock>\n";TMS_Ibrahim-46-4;75.031;1.0.0.561;1;ve;-1465709290;2.0.10.242;2.0.10.242;11/09/2022;09/11/2022 15:40;16:40:34;2.0.10.147;0;;-999999;41;42590;0;1;1225;43815;1;1;1;2;1;0;1;BlockProcFischi;BlockList;1;100;0;;-999999;32;45360;0;1;644;46004;1;1;1;1;ProcFischi1;ListBlockFischi;3;1;1;1;0;3;Pomod_B;250;2;op;3;2;48;1;3;2;0;TrialProc;1261;1313;Pomod_B;215;1886;1671;ListFischi1;0;;2;203;62892;11;13;1908;64800;612;1;1908;1;595;358;1296;1;1
TMS_Ibrahim;46;4;"<?xml version=""1.0""?>\n<Clock xmlns:dt=""urn:schemas-microsoft-com:datatypes""><Description dt:dt=""string"">E-Prime Primary Realtime Clock</Description><StartTime><Timestamp dt:dt=""int"">0</Timestamp><DateUtc dt:dt=""string"">2022-11-09T15:40:33Z</DateUtc></StartTime><FrequencyChanges><FrequencyChange><Frequency dt:dt=""r8"">3312880</Frequency><Timestamp dt:dt=""r8"">88727974287</Timestamp><Current dt:dt=""r8"">0</Current><DateUtc dt:dt=""string"">2022-11-09T15:40:33Z</DateUtc></FrequencyChange></FrequencyChanges></Clock>\n";TMS_Ibrahim-46-4;75.031;1.0.0.561;1;ve;-1465709290;2.0.10.242;2.0.10.242;11/09/2022;09/11/2022 15:40;16:40:34;2.0.10.147;0;;-999999;41;42590;0;1;1225;43815;1;1;1;2;1;0;1;BlockProcFischi;BlockList;1;100;0;;-999999;32;45360;0;1;644;46004;1;1;1;1;ProcFischi1;ListBlockFischi;4;1;1;0;0;3;Po2_B;225;2;op;3;2;43;1;4;2;0;TrialProc;641;1581;Po2_B;40;1848;1808;ListFischi1;0;;2;201;69940;13;133;2092;72032;476;1;1868;1;625;291;1392;1;1
TMS_Ibrahim;46;4;"<?xml version=""1.0""?>\n<Clock xmlns:dt=""urn:schemas-microsoft-com:datatypes""><Description dt:dt=""string"">E-Prime Primary Realtime Clock</Description><StartTime><Timestamp dt:dt=""int"">0</Timestamp><DateUtc dt:dt=""string"">2022-11-09T15:40:33Z</DateUtc></StartTime><FrequencyChanges><FrequencyChange><Frequency dt:dt=""r8"">3312880</Frequency><Timestamp dt:dt=""r8"">88727974287</Timestamp><Current dt:dt=""r8"">0</Current><DateUtc dt:dt=""string"">2022-11-09T15:40:33Z</DateUtc></FrequencyChange></FrequencyChanges></Clock>\n";TMS_Ibrahim-46-4;75.031;1.0.0.561;1;ve;-1465709290;2.0.10.242;2.0.10.242;11/09/2022;09/11/2022 15:40;16:40:34;2.0.10.147;0;;-999999;41;42590;0;1;1225;43815;1;1;1;2;1;0;1;BlockProcFischi;BlockList;1;100;0;;-999999;32;45360;0;1;644;46004;1;1;1;1;ProcFischi1;ListBlockFischi;5;1;2;0;1;5;Pr2_B;250;1;op;5;2;6;1;5;1;0;TrialProc;517;714;Pr2_B;387;1633;1247;ListFischi1;0;;2;203;77112;12;15;1655;78767;503;1;1655;1;1679;540;1152;1;1
TMS_Ibrahim;46;4;"<?xml version=""1.0""?>\n<Clock xmlns:dt=""urn:schemas-microsoft-com:datatypes""><Description dt:dt=""string"">E-Prime Primary Realtime Clock</Description><StartTime><Timestamp dt:dt=""int"">0</Timestamp><DateUtc dt:dt=""string"">2022-11-09T15:40:33Z</DateUtc></StartTime><FrequencyChanges><FrequencyChange><Frequency dt:dt=""r8"">3312880</Frequency><Timestamp dt:dt=""r8"">88727974287</Timestamp><Current dt:dt=""r8"">0</Current><DateUtc dt:dt=""string"">2022-11-09T15:40:33Z</DateUtc></FrequencyChange></FrequencyChanges></Clock>\n";TMS_Ibrahim-46-4;75.031;1.0.0.561;1;ve;-1465709290;2.0.10.242;2.0.10.242;11/09/2022;09/11/2022 15:40;16:40:34;2.0.10.147;0;;-999999;41;42590;0;1;1225;43815;1;1;1;2;1;0;1;BlockProcFischi;BlockList;1;100;0;;-999999;32;45360;0;1;644;46004;1;1;1;1;ProcFischi1;ListBlockFischi;6;1;1;0;0;5;Po4_B;250;4;ug;5;2;51;1;6;4;1;TrialProc;588;1344;Po4_B;112;1605;1717;ListFischi1;0;;2;201;83800;15;15;1623;85423;599;1;1623;1;401;563;1024;1;1
TMS_Ibrahim;46;4;"<?xml version=""1.0""?>\n<Clock xmlns:dt=""urn:schemas-microsoft-com:datatypes""><Description dt:dt=""string"">E-Prime Primary Realtime Clock</Description><StartTime><Timestamp dt:dt=""int"">0</Timestamp><DateUtc dt:dt=""string"">2022-11-09T15:40:33Z</DateUtc></StartTime><FrequencyChanges><FrequencyChange><Frequency dt:dt=""r8"">3312880</Frequency><Timestamp dt:dt=""r8"">88727974287</Timestamp><Current dt:dt=""r8"">0</Current><DateUtc dt:dt=""string"">2022-11-09T15:40:33Z</DateUtc></FrequencyChange></FrequencyChanges></Clock>\n";TMS_Ibrahim-46-4;75.031;1.0.0.561;1;ve;-1465709290;2.0.10.242;2.0.10.242;11/09/2022;09/11/2022 15:40;16:40:34;2.0.10.147;0;;-999999;41;42590;0;1;1225;43815;1;1;1;2;1;0;1;BlockProcFischi;BlockList;1;100;0;;-999999;32;45360;0;1;644;46004;1;1;1;1;ProcFischi1;ListBlockFischi;7;1;1;0;0;5;Po4_B;225;4;ug;5;2;61;1;7;4;1;TrialProc;552;1336;Po4_B;61;1649;1710;ListFischi1;0;;2;203;91230;8;15;1681;92911;609;1;1681;1;293;374;1072;1;1
TMS_Ibrahim;46;4;"<?xml version=""1.0""?>\n<Clock xmlns:dt=""urn:schemas-microsoft-com:datatypes""><Description dt:dt=""string"">E-Prime Primary Realtime Clock</Description><StartTime><Timestamp dt:dt=""int"">0</Timestamp><DateUtc dt:dt=""string"">2022-11-09T15:40:33Z</DateUtc></StartTime><FrequencyChanges><FrequencyChange><Frequency dt:dt=""r8"">3312880</Frequency><Timestamp dt:dt=""r8"">88727974287</Timestamp><Current dt:dt=""r8"">0</Current><DateUtc dt:dt=""string"">2022-11-09T15:40:33Z</DateUtc></FrequencyChange></FrequencyChanges></Clock>\n";TMS_Ibrahim-46-4;75.031;1.0.0.561;1;ve;-1465709290;2.0.10.242;2.0.10.242;11/09/2022;09/11/2022 15:40;16:40:34;2.0.10.147;0;;-999999;41;42590;0;1;1225;43815;1;1;1;2;1;0;1;BlockProcFischi;BlockList;1;100;0;;-999999;32;45360;0;1;644;46004;1;1;1;1;ProcFischi1;ListBlockFischi;8;1;1;0;0;3;Po5_B;200;2;op;3;2;36;1;8;2;0;TrialProc;633;984;Po5_B;8;1485;1478;ListFischi1;0;;2;201;98447;15;13;1519;99966;544;1;1519;1;419;425;975;1;1
TMS_Ibrahim;46;4;"<?xml version=""1.0""?>\n<Clock xmlns:dt=""urn:schemas-microsoft-com:datatypes""><Description dt:dt=""string"">E-Prime Primary Realtime Clock</Description><StartTime><Timestamp dt:dt=""int"">0</Timestamp><DateUtc dt:dt=""string"">2022-11-09T15:40:33Z</DateUtc></StartTime><FrequencyChanges><FrequencyChange><Frequency dt:dt=""r8"">3312880</Frequency><Timestamp dt:dt=""r8"">88727974287</Timestamp><Current dt:dt=""r8"">0</Current><DateUtc dt:dt=""string"">2022-11-09T15:40:33Z</DateUtc></FrequencyChange></FrequencyChanges></Clock>\n";TMS_Ibrahim-46-4;75.031;1.0.0.561;1;ve;-1465709290;2.0.10.242;2.0.10.242;11/09/2022;09/11/2022 15:40;16:40:34;2.0.10.147;0;;-999999;41;42590;0;1;1225;43815;1;1;1;2;1;0;1;BlockProcFischi;BlockList;1;100;0;;-999999;32;45360;0;1;644;46004;1;1;1;1;ProcFischi1;ListBlockFischi;9;1;2;0;2;5;Pr3_B;250;1;op;5;2;7;1;9;1;0;TrialProc;785;713;Pr3_B;89;1803;1714;ListFischi1;0;;2;203;105794;12;15;1836;107630;556;1;1836;1;127;351;1280;1;1
TMS_Ibrahim;46;4;"<?xml version=""1.0""?>\n<Clock xmlns:dt=""urn:schemas-microsoft-com:datatypes""><Description dt:dt=""string"">E-Prime Primary Realtime Clock</Description><StartTime><Timestamp dt:dt=""int"">0</Timestamp><DateUtc dt:dt=""string"">2022-11-09T15:40:33Z</DateUtc></StartTime><FrequencyChanges><FrequencyChange><Frequency dt:dt=""r8"">3312880</Frequency><Timestamp dt:dt=""r8"">88727974287</Timestamp><Current dt:dt=""r8"">0</Current><DateUtc dt:dt=""string"">2022-11-09T15:40:33Z</DateUtc></FrequencyChange></FrequencyChanges></Clock>\n";TMS_Ibrahim-46-4;75.031;1.0.0.561;1;ve;-1465709290;2.0.10.242;2.0.10.242;11/09/2022;09/11/2022 15:40;16:40:34;2.0.10.147;0;;-999999;41;42590;0;1;1225;43815;1;1;1;2;1;0;1;BlockProcFischi;BlockList;1;100;0;;-999999;32;45360;0;1;644;46004;1;1;1;1;ProcFischi1;ListBlockFischi;10;1;1;0;0;3;Po4_B;175;2;op;3;2;40;1;10;2;0;TrialProc;684;1358;Po4_B;36;1752;1717;ListFischi1;0;;2;201;113175;15;133;3335;116510;951;1;1783;1;792;403;832;1;1
TMS_Ibrahim;46;4;"<?xml version=""1.0""?>\n<Clock xmlns:dt=""urn:schemas-microsoft-com:datatypes""><Description dt:dt=""string"">E-Prime Primary Realtime Clock</Description><StartTime><Timestamp dt:dt=""int"">0</Timestamp><DateUtc dt:dt=""string"">2022-11-09T15:40:33Z</DateUtc></StartTime><FrequencyChanges><FrequencyChange><Frequency dt:dt=""r8"">3312880</Frequency><Timestamp dt:dt=""r8"">88727974287</Timestamp><Current dt:dt=""r8"">0</Current><DateUtc dt:dt=""string"">2022-11-09T15:40:33Z</DateUtc></FrequencyChange></FrequencyChanges></Clock>\n";TMS_Ibrahim-46-4;75.031;1.0.0.561;1;ve;-1465709290;2.0.10.242;2.0.10.242;11/09/2022;09/11/2022 15:40;16:40:34;2.0.10.147;0;;-999999;41;42590;0;1;1225;43815;1;1;1;2;1;0;1;BlockProcFischi;BlockList;1;100;0;;-999999;32;45360;0;1;644;46004;1;1;1;1;ProcFischi1;ListBlockFischi;11;1;2;0;0;5;Pr3_B;225;1;op;5;2;12;1;11;1;0;TrialProc;593;715;Pr3_B;43;1672;1715;ListFischi1;0;;2;203;120428;12;1555;2594;123022;690;1;1698;1;312;276;1008;1;1
TMS_Ibrahim;46;4;"<?xml version=""1.0""?>\n<Clock xmlns:dt=""urn:schemas-microsoft-com:datatypes""><Description dt:dt=""string"">E-Prime Primary Realtime Clock</Description><StartTime><Timestamp dt:dt=""int"">0</Timestamp><DateUtc dt:dt=""string"">2022-11-09T15:40:33Z</DateUtc></StartTime><FrequencyChanges><FrequencyChange><Frequency dt:dt=""r8"">3312880</Frequency><Timestamp dt:dt=""r8"">88727974287</Timestamp><Current dt:dt=""r8"">0</Current><DateUtc dt:dt=""string"">2022-11-09T15:40:33Z</DateUtc></FrequencyChange></FrequencyChanges></Clock>\n";TMS_Ibrahim-46-4;75.031;1.0.0.561;1;ve;-1465709290;2.0.10.242;2.0.10.242;11/09/2022;09/11/2022 15:40;16:40:34;2.0.10.147;0;;-999999;41;42590;0;1;1225;43815;1;1;1;2;1;0;1;BlockProcFischi;BlockList;1;100;0;;-999999;32;45360;0;1;644;46004;1;1;1;1;ProcFischi1;ListBlockFischi;12;1;2;0;0;3;Pr2_B;225;3;ug;3;2;22;1;12;3;1;TrialProc;1043;718;Pr2_B;254;1506;1252;ListFischi1;0;;2;201;126780;18;13;1537;128317;562;1;1537;1;488;535;975;1;1
TMS_Ibrahim;46;4;"<?xml version=""1.0""?>\n<Clock xmlns:dt=""urn:schemas-microsoft-com:datatypes""><Description dt:dt=""string"">E-Prime Primary Realtime Clock</Description><StartTime><Timestamp dt:dt=""int"">0</Timestamp><DateUtc dt:dt=""string"">2022-11-09T15:40:33Z</DateUtc></StartTime><FrequencyChanges><FrequencyChange><Frequency dt:dt=""r8"">3312880</Frequency><Timestamp dt:dt=""r8"">88727974287</Timestamp><Current dt:dt=""r8"">0</Current><DateUtc dt:dt=""string"">2022-11-09T15:40:33Z</DateUtc></FrequencyChange></FrequencyChanges></Clock>\n";TMS_Ibrahim-46-4;75.031;1.0.0.561;1;ve;-1465709290;2.0.10.242;2.0.10.242;11/09/2022;09/11/2022 15:40;16:40:34;2.0.10.147;0;;-999999;41;42590;0;1;1225;43815;1;1;1;2;1;0;1;BlockProcFischi;BlockList;1;100;0;;-999999;32;45360;0;1;644;46004;1;1;1;1;ProcFischi1;ListBlockFischi;13;1;1;0;0;5;Po3_B;200;4;ug;5;2;50;1;13;4;1;TrialProc;787;1315;Po3_B;91;1672;1581;ListFischi1;0;;2;203;133622;13;15;1703;135325;455;1;1703;1;365;379;1248;1;1
TMS_Ibrahim;46;4;"<?xml version=""1.0""?>\n<Clock xmlns:dt=""urn:schemas-microsoft-com:datatypes""><Description dt:dt=""string"">E-Prime Primary Realtime Clock</Description><StartTime><Timestamp dt:dt=""int"">0</Timestamp><DateUtc dt:dt=""string"">2022-11-09T15:40:33Z</DateUtc></StartTime><FrequencyChanges><FrequencyChange><Frequency dt:dt=""r8"">3312880</Frequency><Timestamp dt:dt=""r8"">88727974287</Timestamp><Current dt:dt=""r8"">0</Current><DateUtc dt:dt=""string"">2022-11-09T15:40:33Z</DateUtc></FrequencyChange></FrequencyChanges></Clock>\n";TMS_Ibrahim-46-4;75.031;1.0.0.561;1;ve;-1465709290;2.0.10.242;2.0.10.242;11/09/2022;09/11/2022 15:40;16:40:34;2.0.10.147;0;;-999999;41;42590;0;1;1225;43815;1;1;1;2;1;0;1;BlockProcFischi;BlockList;1;100;0;;-999999;32;45360;0;1;644;46004;1;1;1;1;ProcFischi1;ListBlockFischi;14;1;2;0;1;3;Pr5_B;225;3;ug;3;2;25;1;14;3;1;TrialProc;797;676;Pr5_B;206;1482;1276;ListFischi1;0;;2;201;140858;14;133;2723;143581;467;1;1507;1;1174;430;1040;1;1
TMS_Ibrahim;46;4;"<?xml version=""1.0""?>\n<Clock xmlns:dt=""urn:schemas-microsoft-com:datatypes""><Description dt:dt=""string"">E-Prime Primary Realtime Clock</Description><StartTime><Timestamp dt:dt=""int"">0</Timestamp><DateUtc dt:dt=""string"">2022-11-09T15:40:33Z</DateUtc></StartTime><FrequencyChanges><FrequencyChange><Frequency dt:dt=""r8"">3312880</Frequency><Timestamp dt:dt=""r8"">88727974287</Timestamp><Current dt:dt=""r8"">0</Current><DateUtc dt:dt=""string"">2022-11-09T15:40:33Z</DateUtc></FrequencyChange></FrequencyChanges></Clock>\n";TMS_Ibrahim-46-4;75.031;1.0.0.561;1;ve;-1465709290;2.0.10.242;2.0.10.242;11/09/2022;09/11/2022 15:40;16:40:34;2.0.10.147;0;;-999999;41;42590;0;1;1225;43815;1;1;1;2;1;0;1;BlockProcFischi;BlockList;1;100;0;;-999999;32;45360;0;1;644;46004;1;1;1;1;ProcFischi1;ListBlockFischi;15;1;1;0;0;5;Po4_B;175;4;ug;5;2;56;1;15;4;1;TrialProc;669;6000;Po4_B;11;6000;6000;ListFischi1;0;;2;203;146555;8;15;1730;148285;562;1;1730;1;243;327;1168;1;1
TMS_Ibrahim;46;4;"<?xml version=""1.0""?>\n<Clock xmlns:dt=""urn:schemas-microsoft-com:datatypes""><Description dt:dt=""string"">E-Prime Primary Realtime Clock</Description><StartTime><Timestamp dt:dt=""int"">0</Timestamp><DateUtc dt:dt=""string"">2022-11-09T15:40:33Z</DateUtc></StartTime><FrequencyChanges><FrequencyChange><Frequency dt:dt=""r8"">3312880</Frequency><Timestamp dt:dt=""r8"">88727974287</Timestamp><Current dt:dt=""r8"">0</Current><DateUtc dt:dt=""string"">2022-11-09T15:40:33Z</DateUtc></FrequencyChange></FrequencyChanges></Clock>\n";TMS_Ibrahim-46-4;75.031;1.0.0.561;1;ve;-1465709290;2.0.10.242;2.0.10.242;11/09/2022;09/11/2022 15:40;16:40:34;2.0.10.147;0;;-999999;41;42590;0;1;1225;43815;1;1;1;2;1;0;1;BlockProcFischi;BlockList;1;100;0;;-999999;32;45360;0;1;644;46004;1;1;1;1;ProcFischi1;ListBlockFischi;16;1;1;0;0;5;Po2_B;150;4;ug;5;2;59;1;16;4;1;TrialProc;544;1578;Po2_B;17;1788;1805;ListFischi1;0;;2;201;153684;10;15;1817;155501;489;1;1817;1;422;344;1328;1;1
TMS_Ibrahim;46;4;"<?xml version=""1.0""?>\n<Clock xmlns:dt=""urn:schemas-microsoft-com:datatypes""><Description dt:dt=""string"">E-Prime Primary Realtime Clock</Description><StartTime><Timestamp dt:dt=""int"">0</Timestamp><DateUtc dt:dt=""string"">2022-11-09T15:40:33Z</DateUtc></StartTime><FrequencyChanges><FrequencyChange><Frequency dt:dt=""r8"">3312880</Frequency><Timestamp dt:dt=""r8"">88727974287</Timestamp><Current dt:dt=""r8"">0</Current><DateUtc dt:dt=""string"">2022-11-09T15:40:33Z</DateUtc></FrequencyChange></FrequencyChanges></Clock>\n";TMS_Ibrahim-46-4;75.031;1.0.0.561;1;ve;-1465709290;2.0.10.242;2.0.10.242;11/09/2022;09/11/2022 15:40;16:40:34;2.0.10.147;0;;-999999;41;42590;0;1;1225;43815;1;1;1;2;1;0;1;BlockProcFischi;BlockList;1;100;0;;-999999;32;45360;0;1;644;46004;1;1;1;1;ProcFischi1;ListBlockFischi;17;1;1;0;0;3;Po3_B;150;2;op;3;2;44;1;17;2;0;TrialProc;608;1309;Po3_B;55;1521;1576;ListFischi1;0;;2;203;161083;8;13;1553;162636;497;1;1553;1;907;269;1056;1;1
TMS_Ibrahim;46;4;"<?xml version=""1.0""?>\n<Clock xmlns:dt=""urn:schemas-microsoft-com:datatypes""><Description dt:dt=""string"">E-Prime Primary Realtime Clock</Description><StartTime><Timestamp dt:dt=""int"">0</Timestamp><DateUtc dt:dt=""string"">2022-11-09T15:40:33Z</DateUtc></StartTime><FrequencyChanges><FrequencyChange><Frequency dt:dt=""r8"">3312880</Frequency><Timestamp dt:dt=""r8"">88727974287</Timestamp><Current dt:dt=""r8"">0</Current><DateUtc dt:dt=""string"">2022-11-09T15:40:33Z</DateUtc></FrequencyChange></FrequencyChanges></Clock>\n";TMS_Ibrahim-46-4;75.031;1.0.0.561;1;ve;-1465709290;2.0.10.242;2.0.10.242;11/09/2022;09/11/2022 15:40;16:40:34;2.0.10.147;0;;-999999;41;42590;0;1;1225;43815;1;1;1;2;1;0;1;BlockProcFischi;BlockList;1;100;0;;-999999;32;45360;0;1;644;46004;1;1;1;1;ProcFischi1;ListBlockFischi;18;1;1;0;0;3;Po4_B;125;2;op;3;2;35;1;18;2;0;TrialProc;686;1340;Po4_B;154;1561;1714;ListFischi1;0;;3;201;168502;13;13;1590;170092;534;1;1590;1;579;351;1056;1;1
TMS_Ibrahim;46;4;"<?xml version=""1.0""?>\n<Clock xmlns:dt=""urn:schemas-microsoft-com:datatypes""><Description dt:dt=""string"">E-Prime Primary Realtime Clock</Description><StartTime><Timestamp dt:dt=""int"">0</Timestamp><DateUtc dt:dt=""string"">2022-11-09T15:40:33Z</DateUtc></StartTime><FrequencyChanges><FrequencyChange><Frequency dt:dt=""r8"">3312880</Frequency><Timestamp dt:dt=""r8"">88727974287</Timestamp><Current dt:dt=""r8"">0</Current><DateUtc dt:dt=""string"">2022-11-09T15:40:33Z</DateUtc></FrequencyChange></FrequencyChanges></Clock>\n";TMS_Ibrahim-46-4;75.031;1.0.0.561;1;ve;-1465709290;2.0.10.242;2.0.10.242;11/09/2022;09/11/2022 15:40;16:40:34;2.0.10.147;0;;-999999;41;42590;0;1;1225;43815;1;1;1;2;1;0;1;BlockProcFischi;BlockList;1;100;0;;-999999;32;45360;0;1;644;46004;1;1;1;1;ProcFischi1;ListBlockFischi;19;1;2;0;1;3;Pr8_B;225;3;ug;3;2;21;1;19;3;1;TrialProc;657;712;Pr8_B;32;1707;1739;ListFischi1;0;;2;203;175727;12;13;1741;177468;461;1;1741;1;541;435;1280;1;1
TMS_Ibrahim;46;4;"<?xml version=""1.0""?>\n<Clock xmlns:dt=""urn:schemas-microsoft-com:datatypes""><Description dt:dt=""string"">E-Prime Primary Realtime Clock</Description><StartTime><Timestamp dt:dt=""int"">0</Timestamp><DateUtc dt:dt=""string"">2022-11-09T15:40:33Z</DateUtc></StartTime><FrequencyChanges><FrequencyChange><Frequency dt:dt=""r8"">3312880</Frequency><Timestamp dt:dt=""r8"">88727974287</Timestamp><Current dt:dt=""r8"">0</Current><DateUtc dt:dt=""string"">2022-11-09T15:40:33Z</DateUtc></FrequencyChange></FrequencyChanges></Clock>\n";TMS_Ibrahim-46-4;75.031;1.0.0.561;1;ve;-1465709290;2.0.10.242;2.0.10.242;11/09/2022;09/11/2022 15:40;16:40:34;2.0.10.147;0;;-999999;41;42590;0;1;1225;43815;1;1;1;2;1;0;1;BlockProcFischi;BlockList;1;100;0;;-999999;32;45360;0;1;644;46004;1;1;1;1;ProcFischi1;ListBlockFischi;20;1;1;1;1;3;Pomod_B;125;2;op;3;2;47;1;20;2;0;TrialProc;1618;1319;Pomod_B;297;1975;1679;ListFischi1;0;;2;201;182838;18;13;2006;184844;502;1;2006;1;539;248;1504;1;1
TMS_Ibrahim;46;4;"<?xml version=""1.0""?>\n<Clock xmlns:dt=""urn:schemas-microsoft-com:datatypes""><Description dt:dt=""string"">E-Prime Primary Realtime Clock</Description><StartTime><Timestamp dt:dt=""int"">0</Timestamp><DateUtc dt:dt=""string"">2022-11-09T15:40:33Z</DateUtc></StartTime><FrequencyChanges><FrequencyChange><Frequency dt:dt=""r8"">3312880</Frequency><Timestamp dt:dt=""r8"">88727974287</Timestamp><Current dt:dt=""r8"">0</Current><DateUtc dt:dt=""string"">2022-11-09T15:40:33Z</DateUtc></FrequencyChange></FrequencyChanges></Clock>\n";TMS_Ibrahim-46-4;75.031;1.0.0.561;1;ve;-1465709290;2.0.10.242;2.0.10.242;11/09/2022;09/11/2022 15:40;16:40:34;2.0.10.147;0;;-999999;41;42590;0;1;1225;43815;1;1;1;2;1;0;1;BlockProcFischi;BlockList;1;100;0;;-999999;32;45360;0;1;644;46004;1;1;1;1;ProcFischi1;ListBlockFischi;21;0;1;0;0;5;Po5_B;;4;ug;1;2;57;1;21;4;1;TrialProc;1765;980;Po5_B;297;1975;1474;ListFischi1;0;;2;203;189629;11;15;1854;191483;558;1;1;1;269;403;-557;1;0
TMS_Ibrahim;46;4;"<?xml version=""1.0""?>\n<Clock xmlns:dt=""urn:schemas-microsoft-com:datatypes""><Description dt:dt=""string"">E-Prime Primary Realtime Clock</Description><StartTime><Timestamp dt:dt=""int"">0</Timestamp><DateUtc dt:dt=""string"">2022-11-09T15:40:33Z</DateUtc></StartTime><FrequencyChanges><FrequencyChange><Frequency dt:dt=""r8"">3312880</Frequency><Timestamp dt:dt=""r8"">88727974287</Timestamp><Current dt:dt=""r8"">0</Current><DateUtc dt:dt=""string"">2022-11-09T15:40:33Z</DateUtc></FrequencyChange></FrequencyChanges></Clock>\n";TMS_Ibrahim-46-4;75.031;1.0.0.561;1;ve;-1465709290;2.0.10.242;2.0.10.242;11/09/2022;09/11/2022 15:40;16:40:34;2.0.10.147;0;;-999999;41;42590;0;1;1225;43815;1;1;1;2;1;0;1;BlockProcFischi;BlockList;1;100;0;;-999999;32;45360;0;1;644;46004;1;1;1;1;ProcFischi1;ListBlockFischi;22;1;2;0;0;3;Pr3_B;200;3;ug;3;2;18;1;22;3;1;TrialProc;790;720;Pr3_B;47;1672;1719;ListFischi1;0;;1;202;196500;17;133;2599;199099;567;1;1703;1;208;278;1136;1;1
TMS_Ibrahim;46;4;"<?xml version=""1.0""?>\n<Clock xmlns:dt=""urn:schemas-microsoft-com:datatypes""><Description dt:dt=""string"">E-Prime Primary Realtime Clock</Description><StartTime><Timestamp dt:dt=""int"">0</Timestamp><DateUtc dt:dt=""string"">2022-11-09T15:40:33Z</DateUtc></StartTime><FrequencyChanges><FrequencyChange><Frequency dt:dt=""r8"">3312880</Frequency><Timestamp dt:dt=""r8"">88727974287</Timestamp><Current dt:dt=""r8"">0</Current><DateUtc dt:dt=""string"">2022-11-09T15:40:33Z</DateUtc></FrequencyChange></FrequencyChanges></Clock>\n";TMS_Ibrahim-46-4;75.031;1.0.0.561;1;ve;-1465709290;2.0.10.242;2.0.10.242;11/09/2022;09/11/2022 15:40;16:40:34;2.0.10.147;0;;-999999;41;42590;0;1;1225;43815;1;1;1;2;1;0;1;BlockProcFischi;BlockList;1;100;0;;-999999;32;45360;0;1;644;46004;1;1;1;1;ProcFischi1;ListBlockFischi;23;1;2;0;0;5;Pr2_B;200;1;op;5;2;1;1;23;1;0;TrialProc;972;710;Pr2_B;268;1511;1243;ListFischi1;0;;2;203;203012;9;15;1543;204555;407;1;1543;1;361;237;1136;1;1
TMS_Ibrahim;46;4;"<?xml version=""1.0""?>\n<Clock xmlns:dt=""urn:schemas-microsoft-com:datatypes""><Description dt:dt=""string"">E-Prime Primary Realtime Clock</Description><StartTime><Timestamp dt:dt=""int"">0</Timestamp><DateUtc dt:dt=""string"">2022-11-09T15:40:33Z</DateUtc></StartTime><FrequencyChanges><FrequencyChange><Frequency dt:dt=""r8"">3312880</Frequency><Timestamp dt:dt=""r8"">88727974287</Timestamp><Current dt:dt=""r8"">0</Current><DateUtc dt:dt=""string"">2022-11-09T15:40:33Z</DateUtc></FrequencyChange></FrequencyChanges></Clock>\n";TMS_Ibrahim-46-4;75.031;1.0.0.561;1;ve;-1465709290;2.0.10.242;2.0.10.242;11/09/2022;09/11/2022 15:40;16:40:34;2.0.10.147;0;;-999999;41;42590;0;1;1225;43815;1;1;1;2;1;0;1;BlockProcFischi;BlockList;1;100;0;;-999999;32;45360;0;1;644;46004;1;1;1;1;ProcFischi1;ListBlockFischi;24;1;1;0;2;3;Po2_B;125;2;op;3;2;33;1;24;2;0;TrialProc;661;1578;Po2_B;161;1644;1805;ListFischi1;0;;2;201;210248;10;13;1667;211915;195;1;1667;1;535;281;1472;1;1
TMS_Ibrahim;46;4;"<?xml version=""1.0""?>\n<Clock xmlns:dt=""urn:schemas-microsoft-com:datatypes""><Description dt:dt=""string"">E-Prime Primary Realtime Clock</Description><StartTime><Timestamp dt:dt=""int"">0</Timestamp><DateUtc dt:dt=""string"">2022-11-09T15:40:33Z</DateUtc></StartTime><FrequencyChanges><FrequencyChange><Frequency dt:dt=""r8"">3312880</Frequency><Timestamp dt:dt=""r8"">88727974287</Timestamp><Current dt:dt=""r8"">0</Current><DateUtc dt:dt=""string"">2022-11-09T15:40:33Z</DateUtc></FrequencyChange></FrequencyChanges></Clock>\n";TMS_Ibrahim-46-4;75.031;1.0.0.561;1;ve;-1465709290;2.0.10.242;2.0.10.242;11/09/2022;09/11/2022 15:40;16:40:34;2.0.10.147;0;;-999999;41;42590;0;1;1225;43815;1;1;1;2;1;0;1;BlockProcFischi;BlockList;1;100;0;;-999999;32;45360;0;1;644;46004;1;1;1;1;ProcFischi1;ListBlockFischi;25;1;1;0;0;3;Po8_B;150;2;op;3;2;37;1;25;2;0;TrialProc;595;1241;Po8_B;306;1881;1574;ListFischi1;0;;2;203;217609;6;13;1905;219514;465;1;1905;1;606;385;1440;1;1
TMS_Ibrahim;46;4;"<?xml version=""1.0""?>\n<Clock xmlns:dt=""urn:schemas-microsoft-com:datatypes""><Description dt:dt=""string"">E-Prime Primary Realtime Clock</Description><StartTime><Timestamp dt:dt=""int"">0</Timestamp><DateUtc dt:dt=""string"">2022-11-09T15:40:33Z</DateUtc></StartTime><FrequencyChanges><FrequencyChange><Frequency dt:dt=""r8"">3312880</Frequency><Timestamp dt:dt=""r8"">88727974287</Timestamp><Current dt:dt=""r8"">0</Current><DateUtc dt:dt=""string"">2022-11-09T15:40:33Z</DateUtc></FrequencyChange></FrequencyChanges></Clock>\n";TMS_Ibrahim-46-4;75.031;1.0.0.561;1;ve;-1465709290;2.0.10.242;2.0.10.242;11/09/2022;09/11/2022 15:40;16:40:34;2.0.10.147;0;;-999999;41;42590;0;1;1225;43815;1;1;1;2;1;0;1;BlockProcFischi;BlockList;1;100;0;;-999999;32;45360;0;1;644;46004;1;1;1;1;ProcFischi1;ListBlockFischi;26;1;2;0;0;3;Pr3_B;175;3;ug;3;2;23;1;26;3;1;TrialProc;796;711;Pr3_B;68;1777;1710;ListFischi1;0;;2;203;224431;8;13;1803;226234;603;1;1803;1;571;548;1200;1;1
TMS_Ibrahim;46;4;"<?xml version=""1.0""?>\n<Clock xmlns:dt=""urn:schemas-microsoft-com:datatypes""><Description dt:dt=""string"">E-Prime Primary Realtime Clock</Description><StartTime><Timestamp dt:dt=""int"">0</Timestamp><DateUtc dt:dt=""string"">2022-11-09T15:40:33Z</DateUtc></StartTime><FrequencyChanges><FrequencyChange><Frequency dt:dt=""r8"">3312880</Frequency><Timestamp dt:dt=""r8"">88727974287</Timestamp><Current dt:dt=""r8"">0</Current><DateUtc dt:dt=""string"">2022-11-09T15:40:33Z</DateUtc></FrequencyChange></FrequencyChanges></Clock>\n";TMS_Ibrahim-46-4;75.031;1.0.0.561;1;ve;-1465709290;2.0.10.242;2.0.10.242;11/09/2022;09/11/2022 15:40;16:40:34;2.0.10.147;0;;-999999;41;42590;0;1;1225;43815;1;1;1;2;1;0;1;BlockProcFischi;BlockList;1;100;0;;-999999;32;45360;0;1;644;46004;1;1;1;1;ProcFischi1;ListBlockFischi;27;1;2;0;0;3;Pr4_B;150;3;ug;3;2;29;1;27;3;1;TrialProc;876;680;Pr4_B;191;1443;1253;ListFischi1;0;;2;201;231567;16;13;1467;233034;539;1;1467;1;673;346;928;1;1
TMS_Ibrahim;46;4;"<?xml version=""1.0""?>\n<Clock xmlns:dt=""urn:schemas-microsoft-com:datatypes""><Description dt:dt=""string"">E-Prime Primary Realtime Clock</Description><StartTime><Timestamp dt:dt=""int"">0</Timestamp><DateUtc dt:dt=""string"">2022-11-09T15:40:33Z</DateUtc></StartTime><FrequencyChanges><FrequencyChange><Frequency dt:dt=""r8"">3312880</Frequency><Timestamp dt:dt=""r8"">88727974287</Timestamp><Current dt:dt=""r8"">0</Current><DateUtc dt:dt=""string"">2022-11-09T15:40:33Z</DateUtc></FrequencyChange></FrequencyChanges></Clock>\n";TMS_Ibrahim-46-4;75.031;1.0.0.561;1;ve;-1465709290;2.0.10.242;2.0.10.242;11/09/2022;09/11/2022 15:40;16:40:34;2.0.10.147;0;;-999999;41;42590;0;1;1225;43815;1;1;1;2;1;0;1;BlockProcFischi;BlockList;1;100;0;;-999999;32;45360;0;1;644;46004;1;1;1;1;ProcFischi1;ListBlockFischi;28;1;2;0;1;3;Pr8_B;150;3;ug;3;2;26;1;28;3;1;TrialProc;672;719;Pr8_B;166;1580;1746;ListFischi1;0;;2;203;238882;18;13;1608;240490;440;1;1608;1;187;506;1168;1;1
TMS_Ibrahim;46;4;"<?xml version=""1.0""?>\n<Clock xmlns:dt=""urn:schemas-microsoft-com:datatypes""><Description dt:dt=""string"">E-Prime Primary Realtime Clock</Description><StartTime><Timestamp dt:dt=""int"">0</Timestamp><DateUtc dt:dt=""string"">2022-11-09T15:40:33Z</DateUtc></StartTime><FrequencyChanges><FrequencyChange><Frequency dt:dt=""r8"">3312880</Frequency><Timestamp dt:dt=""r8"">88727974287</Timestamp><Current dt:dt=""r8"">0</Current><DateUtc dt:dt=""string"">2022-11-09T15:40:33Z</DateUtc></FrequencyChange></FrequencyChanges></Clock>\n";TMS_Ibrahim-46-4;75.031;1.0.0.561;1;ve;-1465709290;2.0.10.242;2.0.10.242;11/09/2022;09/11/2022 15:40;16:40:34;2.0.10.147;0;;-999999;41;42590;0;1;1225;43815;1;1;1;2;1;0;1;BlockProcFischi;BlockList;1;100;0;;-999999;32;45360;0;1;644;46004;1;1;1;1;ProcFischi1;ListBlockFischi;29;1;1;0;1;3;Po8_B;150;2;op;3;2;42;1;29;2;0;TrialProc;702;1244;Po8_B;38;1615;1576;ListFischi1;0;;2;203;246782;9;1333;2459;249241;523;1;1643;1;1571;555;1120;1;1
TMS_Ibrahim;46;4;"<?xml version=""1.0""?>\n<Clock xmlns:dt=""urn:schemas-microsoft-com:datatypes""><Description dt:dt=""string"">E-Prime Primary Realtime Clock</Description><StartTime><Timestamp dt:dt=""int"">0</Timestamp><DateUtc dt:dt=""string"">2022-11-09T15:40:33Z</DateUtc></StartTime><FrequencyChanges><FrequencyChange><Frequency dt:dt=""r8"">3312880</Frequency><Timestamp dt:dt=""r8"">88727974287</Timestamp><Current dt:dt=""r8"">0</Current><DateUtc dt:dt=""string"">2022-11-09T15:40:33Z</DateUtc></FrequencyChange></FrequencyChanges></Clock>\n";TMS_Ibrahim-46-4;75.031;1.0.0.561;1;ve;-1465709290;2.0.10.242;2.0.10.242;11/09/2022;09/11/2022 15:40;16:40:34;2.0.10.147;0;;-999999;41;42590;0;1;1225;43815;1;1;1;2;1;0;1;BlockProcFischi;BlockList;1;100;0;;-999999;32;45360;0;1;644;46004;1;1;1;1;ProcFischi1;ListBlockFischi;30;1;2;0;1;5;Pr8_B;200;1;op;5;2;5;1;30;1;0;TrialProc;1174;716;Pr8_B;49;1791;1741;ListFischi1;0;;2;201;253241;14;15;1824;255065;624;1;1824;1;572;219;1200;1;1
TMS_Ibrahim;46;4;"<?xml version=""1.0""?>\n<Clock xmlns:dt=""urn:schemas-microsoft-com:datatypes""><Description dt:dt=""string"">E-Prime Primary Realtime Clock</Description><StartTime><Timestamp dt:dt=""int"">0</Timestamp><DateUtc dt:dt=""string"">2022-11-09T15:40:33Z</DateUtc></StartTime><FrequencyChanges><FrequencyChange><Frequency dt:dt=""r8"">3312880</Frequency><Timestamp dt:dt=""r8"">88727974287</Timestamp><Current dt:dt=""r8"">0</Current><DateUtc dt:dt=""string"">2022-11-09T15:40:33Z</DateUtc></FrequencyChange></FrequencyChanges></Clock>\n";TMS_Ibrahim-46-4;75.031;1.0.0.561;1;ve;-1465709290;2.0.10.242;2.0.10.242;11/09/2022;09/11/2022 15:40;16:40:34;2.0.10.147;0;;-999999;41;42590;0;1;1225;43815;1;1;1;2;1;0;1;BlockProcFischi;BlockList;1;100;0;;-999999;32;45360;0;1;644;46004;1;1;1;1;ProcFischi1;ListBlockFischi;31;0;1;0;0;5;Po5_B;;4;ug;3;2;62;1;31;4;1;TrialProc;757;985;Po5_B;152;1631;1478;ListFischi1;0;;2;203;260661;18;133;2244;262905;228;1;1652;1;1425;546;1424;1;0
TMS_Ibrahim;46;4;"<?xml version=""1.0""?>\n<Clock xmlns:dt=""urn:schemas-microsoft-com:datatypes""><Description dt:dt=""string"">E-Prime Primary Realtime Clock</Description><StartTime><Timestamp dt:dt=""int"">0</Timestamp><DateUtc dt:dt=""string"">2022-11-09T15:40:33Z</DateUtc></StartTime><FrequencyChanges><FrequencyChange><Frequency dt:dt=""r8"">3312880</Frequency><Timestamp dt:dt=""r8"">88727974287</Timestamp><Current dt:dt=""r8"">0</Current><DateUtc dt:dt=""string"">2022-11-09T15:40:33Z</DateUtc></FrequencyChange></FrequencyChanges></Clock>\n";TMS_Ibrahim-46-4;75.031;1.0.0.561;1;ve;-1465709290;2.0.10.242;2.0.10.242;11/09/2022;09/11/2022 15:40;16:40:34;2.0.10.147;0;;-999999;41;42590;0;1;1225;43815;1;1;1;2;1;0;1;BlockProcFischi;BlockList;1;100;0;;-999999;32;45360;0;1;644;46004;1;1;1;1;ProcFischi1;ListBlockFischi;32;1;1;0;0;3;Po5_B;125;2;op;3;2;46;1;32;2;0;TrialProc;356;983;Po5_B;146;1623;1477;ListFischi1;0;;2;201;267582;14;13;1643;269225;683;1;1643;1;831;554;960;1;1
TMS_Ibrahim;46;4;"<?xml version=""1.0""?>\n<Clock xmlns:dt=""urn:schemas-microsoft-com:datatypes""><Description dt:dt=""string"">E-Prime Primary Realtime Clock</Description><StartTime><Timestamp dt:dt=""int"">0</Timestamp><DateUtc dt:dt=""string"">2022-11-09T15:40:33Z</DateUtc></StartTime><FrequencyChanges><FrequencyChange><Frequency dt:dt=""r8"">3312880</Frequency><Timestamp dt:dt=""r8"">88727974287</Timestamp><Current dt:dt=""r8"">0</Current><DateUtc dt:dt=""string"">2022-11-09T15:40:33Z</DateUtc></FrequencyChange></FrequencyChanges></Clock>\n";TMS_Ibrahim-46-4;75.031;1.0.0.561;1;ve;-1465709290;2.0.10.242;2.0.10.242;11/09/2022;09/11/2022 15:40;16:40:34;2.0.10.147;0;;-999999;41;42590;0;1;1225;43815;1;1;1;2;1;0;1;BlockProcFischi;BlockList;1;100;0;;-999999;32;45360;0;1;644;46004;1;1;1;1;ProcFischi1;ListBlockFischi;33;1;2;0;1;3;Pr5_B;150;3;ug;3;2;20;1;33;3;1;TrialProc;617;678;Pr5_B;315;1593;1278;ListFischi1;0;;2;203;274631;15;13;1617;276248;529;1;1617;1;582;286;1088;1;1
TMS_Ibrahim;46;4;"<?xml version=""1.0""?>\n<Clock xmlns:dt=""urn:schemas-microsoft-com:datatypes""><Description dt:dt=""string"">E-Prime Primary Realtime Clock</Description><StartTime><Timestamp dt:dt=""int"">0</Timestamp><DateUtc dt:dt=""string"">2022-11-09T15:40:33Z</DateUtc></StartTime><FrequencyChanges><FrequencyChange><Frequency dt:dt=""r8"">3312880</Frequency><Timestamp dt:dt=""r8"">88727974287</Timestamp><Current dt:dt=""r8"">0</Current><DateUtc dt:dt=""string"">2022-11-09T15:40:33Z</DateUtc></FrequencyChange></FrequencyChanges></Clock>\n";TMS_Ibrahim-46-4;75.031;1.0.0.561;1;ve;-1465709290;2.0.10.242;2.0.10.242;11/09/2022;09/11/2022 15:40;16:40:34;2.0.10.147;0;;-999999;41;42590;0;1;1225;43815;1;1;1;2;1;0;1;BlockProcFischi;BlockList;1;100;0;;-999999;32;45360;0;1;644;46004;1;1;1;1;ProcFischi1;ListBlockFischi;34;1;1;0;0;5;Po3_B;125;4;ug;5;2;60;1;34;4;1;TrialProc;491;1318;Po3_B;110;1693;1584;ListFischi1;0;;2;201;281349;15;15;1715;283064;339;1;1715;1;3033;593;1376;1;1
TMS_Ibrahim;46;4;"<?xml version=""1.0""?>\n<Clock xmlns:dt=""urn:schemas-microsoft-com:datatypes""><Description dt:dt=""string"">E-Prime Primary Realtime Clock</Description><StartTime><Timestamp dt:dt=""int"">0</Timestamp><DateUtc dt:dt=""string"">2022-11-09T15:40:33Z</DateUtc></StartTime><FrequencyChanges><FrequencyChange><Frequency dt:dt=""r8"">3312880</Frequency><Timestamp dt:dt=""r8"">88727974287</Timestamp><Current dt:dt=""r8"">0</Current><DateUtc dt:dt=""string"">2022-11-09T15:40:33Z</DateUtc></FrequencyChange></FrequencyChanges></Clock>\n";TMS_Ibrahim-46-4;75.031;1.0.0.561;1;ve;-1465709290;2.0.10.242;2.0.10.242;11/09/2022;09/11/2022 15:40;16:40:34;2.0.10.147;0;;-999999;41;42590;0;1;1225;43815;1;1;1;2;1;0;1;BlockProcFischi;BlockList;1;100;0;;-999999;32;45360;0;1;644;46004;1;1;1;1;ProcFischi1;ListBlockFischi;35;1;1;0;0;3;Po5_B;125;2;op;3;2;41;1;35;2;0;TrialProc;441;979;Po5_B;208;1681;1473;ListFischi1;0;;2;203;288562;12;13;1718;290280;726;1;1718;1;711;527;992;1;1
TMS_Ibrahim;46;4;"<?xml version=""1.0""?>\n<Clock xmlns:dt=""urn:schemas-microsoft-com:datatypes""><Description dt:dt=""string"">E-Prime Primary Realtime Clock</Description><StartTime><Timestamp dt:dt=""int"">0</Timestamp><DateUtc dt:dt=""string"">2022-11-09T15:40:33Z</DateUtc></StartTime><FrequencyChanges><FrequencyChange><Frequency dt:dt=""r8"">3312880</Frequency><Timestamp dt:dt=""r8"">88727974287</Timestamp><Current dt:dt=""r8"">0</Current><DateUtc dt:dt=""string"">2022-11-09T15:40:33Z</DateUtc></FrequencyChange></FrequencyChanges></Clock>\n";TMS_Ibrahim-46-4;75.031;1.0.0.561;1;ve;-1465709290;2.0.10.242;2.0.10.242;11/09/2022;09/11/2022 15:40;16:40:34;2.0.10.147;0;;-999999;41;42590;0;1;1225;43815;1;1;1;2;1;0;1;BlockProcFischi;BlockList;1;100;0;;-999999;32;45360;0;1;644;46004;1;1;1;1;ProcFischi1;ListBlockFischi;36;1;2;0;2;3;Pr2_B;150;3;ug;3;2;27;1;36;3;1;TrialProc;493;718;Pr2_B;40;1292;1252;ListFischi1;0;;3;201;296087;18;133;2497;298584;353;1;1313;1;615;393;960;1;1
