ExperimentName;Subject;Session;Clock.Information;DataFile.Basename;Display.RefreshRate;ExperimentVersion;Group;Name;RandomSeed;RuntimeVersion;RuntimeVersionExpected;SessionDate;SessionStartDateTimeUtc;SessionTime;StudioVersion;SyncEprimeKinB1.ACC;SyncEprimeKinB1.CRESP;SyncEprimeKinB1.DurationError;SyncEprimeKinB1.OnsetDelay;SyncEprimeKinB1.OnsetTime;SyncEprimeKinB1.OnsetToOnsetTime;SyncEprimeKinB1.RESP;SyncEprimeKinB1.RT;SyncEprimeKinB1.RTTime;Block;BlockINT_0Fischi_1Suoni;BlockList;BlockList.Cycle;BlockList.Sample;ContatoreSuoni;NumSuono;Procedure[Block];Running[Block];Suonilist;SuonoFinSoglia;SyncEprimeKinFischi1.ACC;SyncEprimeKinFischi1.CRESP;SyncEprimeKinFischi1.DurationError;SyncEprimeKinFischi1.OnsetDelay;SyncEprimeKinFischi1.OnsetTime;SyncEprimeKinFischi1.OnsetToOnsetTime;SyncEprimeKinFischi1.RESP;SyncEprimeKinFischi1.RT;SyncEprimeKinFischi1.RTTime;Trial;ListBlockFischi;ListBlockFischi.Cycle;ListBlockFischi.Sample;Procedure[Trial];Running[Trial];SubTrial;AccSogg1;Avatar_Giu1_Su2;CatchTrial_CORR;ContatoreFinestraSoglia;CorrectResponse;File_Name;FinestraSoglia;IdcondEEG;Istruzione;KeySoggetto1;KeySoggetto2;ListFischi1;ListFischi1.Cycle;ListFischi1.Sample;NumeroSuono;OP_UG;Procedure[SubTrial];Resoconto.RT;RTChange;RTimage;RTNetto;RTSubj;RTTouch;Running[SubTrial];StartGo.ACC;StartGo.CRESP;StartGo.DurationError;StartGo.OnsetDelay;StartGo.OnsetTime;StartGo.OnsetToOnsetTime;StartGo.RESP;StartGo.RT;StartGo.RTTime;StartSoggetto1;StartSoggetto2;StopSoggetto1;StopSoggetto2;StopTrial.RT;tempo;TMSoggetto1;ValiditaTrial;Vincitore
TMS_Ibrahim;47;1;"<?xml version=""1.0""?>\n<Clock xmlns:dt=""urn:schemas-microsoft-com:datatypes""><Description dt:dt=""string"">E-Prime Primary Realtime Clock</Description><StartTime><Timestamp dt:dt=""int"">0</Timestamp><DateUtc dt:dt=""string"">2022-12-05T09:57:53Z</DateUtc></StartTime><FrequencyChanges><FrequencyChange><Frequency dt:dt=""r8"">3312880</Frequency><Timestamp dt:dt=""r8"">17910787328</Timestamp><Current dt:dt=""r8"">0</Current><DateUtc dt:dt=""string"">2022-12-05T09:57:53Z</DateUtc></FrequencyChange></FrequencyChanges></Clock>\n";TMS_Ibrahim-47-1;75.030;1.0.0.561;1;;731593199;2.0.10.242;2.0.10.242;12/05/2022;05/12/2022 09:57;10:57:53;2.0.10.147;0;;-999999;20;9302;0;1;1104;10406;1;1;1;2;1;1;1;BlockProcFischi;BlockList;1;200;0;;-999999;9;12035;0;1;473;12508;1;1;1;1;ProcFischi1;ListBlockFischi;1;1;1;0;0;3;Po2_B;250;2;op;3;2;43;1;1;2;0;TrialProc;813;1592;Po2_B;120;1937;1817;ListFischi1;0;;3;203;17372;24;13;1964;19336;684;1;1964;1;522;205;1280;1;1
TMS_Ibrahim;47;1;"<?xml version=""1.0""?>\n<Clock xmlns:dt=""urn:schemas-microsoft-com:datatypes""><Description dt:dt=""string"">E-Prime Primary Realtime Clock</Description><StartTime><Timestamp dt:dt=""int"">0</Timestamp><DateUtc dt:dt=""string"">2022-12-05T09:57:53Z</DateUtc></StartTime><FrequencyChanges><FrequencyChange><Frequency dt:dt=""r8"">3312880</Frequency><Timestamp dt:dt=""r8"">17910787328</Timestamp><Current dt:dt=""r8"">0</Current><DateUtc dt:dt=""string"">2022-12-05T09:57:53Z</DateUtc></FrequencyChange></FrequencyChanges></Clock>\n";TMS_Ibrahim-47-1;75.030;1.0.0.561;1;;731593199;2.0.10.242;2.0.10.242;12/05/2022;05/12/2022 09:57;10:57:53;2.0.10.147;0;;-999999;20;9302;0;1;1104;10406;1;1;1;2;1;1;1;BlockProcFischi;BlockList;1;200;0;;-999999;9;12035;0;1;473;12508;1;1;1;1;ProcFischi1;ListBlockFischi;2;1;1;0;0;5;Po8_B;250;4;ug;5;2;58;1;2;4;1;TrialProc;1160;1246;Po8_B;291;1868;1578;ListFischi1;0;;2;203;26381;11;15;1899;28280;571;1;1899;1;948;309;1328;1;1
TMS_Ibrahim;47;1;"<?xml version=""1.0""?>\n<Clock xmlns:dt=""urn:schemas-microsoft-com:datatypes""><Description dt:dt=""string"">E-Prime Primary Realtime Clock</Description><StartTime><Timestamp dt:dt=""int"">0</Timestamp><DateUtc dt:dt=""string"">2022-12-05T09:57:53Z</DateUtc></StartTime><FrequencyChanges><FrequencyChange><Frequency dt:dt=""r8"">3312880</Frequency><Timestamp dt:dt=""r8"">17910787328</Timestamp><Current dt:dt=""r8"">0</Current><DateUtc dt:dt=""string"">2022-12-05T09:57:53Z</DateUtc></FrequencyChange></FrequencyChanges></Clock>\n";TMS_Ibrahim-47-1;75.030;1.0.0.561;1;;731593199;2.0.10.242;2.0.10.242;12/05/2022;05/12/2022 09:57;10:57:53;2.0.10.147;0;;-999999;20;9302;0;1;1104;10406;1;1;1;2;1;1;1;BlockProcFischi;BlockList;1;200;0;;-999999;9;12035;0;1;473;12508;1;1;1;1;ProcFischi1;ListBlockFischi;3;0;2;0;0;5;Pr2_B;;1;op;1;2;6;1;3;1;0;TrialProc;2230;716;Pr2_B;291;1868;1249;ListFischi1;0;;3;201;33336;14;15;1728;35064;560;1;1;1;233;415;-559;1;0
TMS_Ibrahim;47;1;"<?xml version=""1.0""?>\n<Clock xmlns:dt=""urn:schemas-microsoft-com:datatypes""><Description dt:dt=""string"">E-Prime Primary Realtime Clock</Description><StartTime><Timestamp dt:dt=""int"">0</Timestamp><DateUtc dt:dt=""string"">2022-12-05T09:57:53Z</DateUtc></StartTime><FrequencyChanges><FrequencyChange><Frequency dt:dt=""r8"">3312880</Frequency><Timestamp dt:dt=""r8"">17910787328</Timestamp><Current dt:dt=""r8"">0</Current><DateUtc dt:dt=""string"">2022-12-05T09:57:53Z</DateUtc></FrequencyChange></FrequencyChanges></Clock>\n";TMS_Ibrahim-47-1;75.030;1.0.0.561;1;;731593199;2.0.10.242;2.0.10.242;12/05/2022;05/12/2022 09:57;10:57:53;2.0.10.147;0;;-999999;20;9302;0;1;1104;10406;1;1;1;2;1;1;1;BlockProcFischi;BlockList;1;200;0;;-999999;9;12035;0;1;473;12508;1;1;1;1;ProcFischi1;ListBlockFischi;4;0;2;0;0;3;Pr2_B;;3;ug;5;2;27;1;4;3;1;TrialProc;2647;710;Pr2_B;289;1532;1243;ListFischi1;0;;2;203;40205;9;15;1563;41768;635;1;1563;1;293;574;928;1;0
TMS_Ibrahim;47;1;"<?xml version=""1.0""?>\n<Clock xmlns:dt=""urn:schemas-microsoft-com:datatypes""><Description dt:dt=""string"">E-Prime Primary Realtime Clock</Description><StartTime><Timestamp dt:dt=""int"">0</Timestamp><DateUtc dt:dt=""string"">2022-12-05T09:57:53Z</DateUtc></StartTime><FrequencyChanges><FrequencyChange><Frequency dt:dt=""r8"">3312880</Frequency><Timestamp dt:dt=""r8"">17910787328</Timestamp><Current dt:dt=""r8"">0</Current><DateUtc dt:dt=""string"">2022-12-05T09:57:53Z</DateUtc></FrequencyChange></FrequencyChanges></Clock>\n";TMS_Ibrahim-47-1;75.030;1.0.0.561;1;;731593199;2.0.10.242;2.0.10.242;12/05/2022;05/12/2022 09:57;10:57:53;2.0.10.147;0;;-999999;20;9302;0;1;1104;10406;1;1;1;2;1;1;1;BlockProcFischi;BlockList;1;200;0;;-999999;9;12035;0;1;473;12508;1;1;1;1;ProcFischi1;ListBlockFischi;5;1;1;0;1;5;Po3_B;250;4;ug;5;2;60;1;5;4;1;TrialProc;859;1310;Po3_B;208;1786;1578;ListFischi1;0;;1;201;47404;7;15;1803;49207;763;1;1803;1;758;578;1040;1;1
TMS_Ibrahim;47;1;"<?xml version=""1.0""?>\n<Clock xmlns:dt=""urn:schemas-microsoft-com:datatypes""><Description dt:dt=""string"">E-Prime Primary Realtime Clock</Description><StartTime><Timestamp dt:dt=""int"">0</Timestamp><DateUtc dt:dt=""string"">2022-12-05T09:57:53Z</DateUtc></StartTime><FrequencyChanges><FrequencyChange><Frequency dt:dt=""r8"">3312880</Frequency><Timestamp dt:dt=""r8"">17910787328</Timestamp><Current dt:dt=""r8"">0</Current><DateUtc dt:dt=""string"">2022-12-05T09:57:53Z</DateUtc></FrequencyChange></FrequencyChanges></Clock>\n";TMS_Ibrahim-47-1;75.030;1.0.0.561;1;;731593199;2.0.10.242;2.0.10.242;12/05/2022;05/12/2022 09:57;10:57:53;2.0.10.147;0;;-999999;20;9302;0;1;1104;10406;1;1;1;2;1;1;1;BlockProcFischi;BlockList;1;200;0;;-999999;9;12035;0;1;473;12508;1;1;1;1;ProcFischi1;ListBlockFischi;6;1;2;0;0;5;Pr2_B;250;1;op;5;2;1;1;6;1;0;TrialProc;977;715;Pr2_B;203;1452;1249;ListFischi1;0;;2;203;54315;13;15;1484;55799;668;1;1484;1;497;535;816;1;1
TMS_Ibrahim;47;1;"<?xml version=""1.0""?>\n<Clock xmlns:dt=""urn:schemas-microsoft-com:datatypes""><Description dt:dt=""string"">E-Prime Primary Realtime Clock</Description><StartTime><Timestamp dt:dt=""int"">0</Timestamp><DateUtc dt:dt=""string"">2022-12-05T09:57:53Z</DateUtc></StartTime><FrequencyChanges><FrequencyChange><Frequency dt:dt=""r8"">3312880</Frequency><Timestamp dt:dt=""r8"">17910787328</Timestamp><Current dt:dt=""r8"">0</Current><DateUtc dt:dt=""string"">2022-12-05T09:57:53Z</DateUtc></FrequencyChange></FrequencyChanges></Clock>\n";TMS_Ibrahim-47-1;75.030;1.0.0.561;1;;731593199;2.0.10.242;2.0.10.242;12/05/2022;05/12/2022 09:57;10:57:53;2.0.10.147;0;;-999999;20;9302;0;1;1104;10406;1;1;1;2;1;1;1;BlockProcFischi;BlockList;1;200;0;;-999999;9;12035;0;1;473;12508;1;1;1;1;ProcFischi1;ListBlockFischi;7;1;1;0;0;3;Po3_B;225;2;op;3;2;44;1;7;2;0;TrialProc;652;1313;Po3_B;200;1778;1578;ListFischi1;0;;2;201;61155;10;13;1812;62967;1076;1;1812;1;517;496;736;1;1
TMS_Ibrahim;47;1;"<?xml version=""1.0""?>\n<Clock xmlns:dt=""urn:schemas-microsoft-com:datatypes""><Description dt:dt=""string"">E-Prime Primary Realtime Clock</Description><StartTime><Timestamp dt:dt=""int"">0</Timestamp><DateUtc dt:dt=""string"">2022-12-05T09:57:53Z</DateUtc></StartTime><FrequencyChanges><FrequencyChange><Frequency dt:dt=""r8"">3312880</Frequency><Timestamp dt:dt=""r8"">17910787328</Timestamp><Current dt:dt=""r8"">0</Current><DateUtc dt:dt=""string"">2022-12-05T09:57:53Z</DateUtc></FrequencyChange></FrequencyChanges></Clock>\n";TMS_Ibrahim-47-1;75.030;1.0.0.561;1;;731593199;2.0.10.242;2.0.10.242;12/05/2022;05/12/2022 09:57;10:57:53;2.0.10.147;0;;-999999;20;9302;0;1;1104;10406;1;1;1;2;1;1;1;BlockProcFischi;BlockList;1;200;0;;-999999;9;12035;0;1;473;12508;1;1;1;1;ProcFischi1;ListBlockFischi;8;0;2;1;0;3;Prmod_B;;3;ug;5;2;32;1;8;3;1;TrialProc;1087;1317;Prmod_B;164;1486;1650;ListFischi1;0;;2;203;68080;16;153;2471;70551;551;1;1511;1;278;432;960;1;0
TMS_Ibrahim;47;1;"<?xml version=""1.0""?>\n<Clock xmlns:dt=""urn:schemas-microsoft-com:datatypes""><Description dt:dt=""string"">E-Prime Primary Realtime Clock</Description><StartTime><Timestamp dt:dt=""int"">0</Timestamp><DateUtc dt:dt=""string"">2022-12-05T09:57:53Z</DateUtc></StartTime><FrequencyChanges><FrequencyChange><Frequency dt:dt=""r8"">3312880</Frequency><Timestamp dt:dt=""r8"">17910787328</Timestamp><Current dt:dt=""r8"">0</Current><DateUtc dt:dt=""string"">2022-12-05T09:57:53Z</DateUtc></FrequencyChange></FrequencyChanges></Clock>\n";TMS_Ibrahim-47-1;75.030;1.0.0.561;1;;731593199;2.0.10.242;2.0.10.242;12/05/2022;05/12/2022 09:57;10:57:53;2.0.10.147;0;;-999999;20;9302;0;1;1104;10406;1;1;1;2;1;1;1;BlockProcFischi;BlockList;1;200;0;;-999999;9;12035;0;1;473;12508;1;1;1;1;ProcFischi1;ListBlockFischi;9;1;2;0;0;5;Pr3_B;225;1;op;5;2;12;1;9;1;0;TrialProc;744;718;Pr3_B;197;1914;1717;ListFischi1;0;;1;201;74425;15;155;2685;77110;766;1;1949;1;335;521;1183;1;1
TMS_Ibrahim;47;1;"<?xml version=""1.0""?>\n<Clock xmlns:dt=""urn:schemas-microsoft-com:datatypes""><Description dt:dt=""string"">E-Prime Primary Realtime Clock</Description><StartTime><Timestamp dt:dt=""int"">0</Timestamp><DateUtc dt:dt=""string"">2022-12-05T09:57:53Z</DateUtc></StartTime><FrequencyChanges><FrequencyChange><Frequency dt:dt=""r8"">3312880</Frequency><Timestamp dt:dt=""r8"">17910787328</Timestamp><Current dt:dt=""r8"">0</Current><DateUtc dt:dt=""string"">2022-12-05T09:57:53Z</DateUtc></FrequencyChange></FrequencyChanges></Clock>\n";TMS_Ibrahim-47-1;75.030;1.0.0.561;1;;731593199;2.0.10.242;2.0.10.242;12/05/2022;05/12/2022 09:57;10:57:53;2.0.10.147;0;;-999999;20;9302;0;1;1104;10406;1;1;1;2;1;1;1;BlockProcFischi;BlockList;1;200;0;;-999999;9;12035;0;1;473;12508;1;1;1;1;ProcFischi1;ListBlockFischi;10;1;2;0;0;3;Pr8_B;250;3;ug;3;2;26;1;10;3;1;TrialProc;645;718;Pr8_B;257;2001;1745;ListFischi1;0;;2;203;81007;17;13;2023;83030;839;1;2023;1;444;587;1184;1;1
TMS_Ibrahim;47;1;"<?xml version=""1.0""?>\n<Clock xmlns:dt=""urn:schemas-microsoft-com:datatypes""><Description dt:dt=""string"">E-Prime Primary Realtime Clock</Description><StartTime><Timestamp dt:dt=""int"">0</Timestamp><DateUtc dt:dt=""string"">2022-12-05T09:57:53Z</DateUtc></StartTime><FrequencyChanges><FrequencyChange><Frequency dt:dt=""r8"">3312880</Frequency><Timestamp dt:dt=""r8"">17910787328</Timestamp><Current dt:dt=""r8"">0</Current><DateUtc dt:dt=""string"">2022-12-05T09:57:53Z</DateUtc></FrequencyChange></FrequencyChanges></Clock>\n";TMS_Ibrahim-47-1;75.030;1.0.0.561;1;;731593199;2.0.10.242;2.0.10.242;12/05/2022;05/12/2022 09:57;10:57:53;2.0.10.147;0;;-999999;20;9302;0;1;1104;10406;1;1;1;2;1;1;1;BlockProcFischi;BlockList;1;200;0;;-999999;9;12035;0;1;473;12508;1;1;1;1;ProcFischi1;ListBlockFischi;11;1;1;0;0;3;Po2_B;225;2;op;3;2;33;1;11;2;0;TrialProc;775;1580;Po2_B;47;1856;1808;ListFischi1;0;;1;201;88142;13;13;1880;90022;664;1;1880;1;412;318;1216;1;1
TMS_Ibrahim;47;1;"<?xml version=""1.0""?>\n<Clock xmlns:dt=""urn:schemas-microsoft-com:datatypes""><Description dt:dt=""string"">E-Prime Primary Realtime Clock</Description><StartTime><Timestamp dt:dt=""int"">0</Timestamp><DateUtc dt:dt=""string"">2022-12-05T09:57:53Z</DateUtc></StartTime><FrequencyChanges><FrequencyChange><Frequency dt:dt=""r8"">3312880</Frequency><Timestamp dt:dt=""r8"">17910787328</Timestamp><Current dt:dt=""r8"">0</Current><DateUtc dt:dt=""string"">2022-12-05T09:57:53Z</DateUtc></FrequencyChange></FrequencyChanges></Clock>\n";TMS_Ibrahim-47-1;75.030;1.0.0.561;1;;731593199;2.0.10.242;2.0.10.242;12/05/2022;05/12/2022 09:57;10:57:53;2.0.10.147;0;;-999999;20;9302;0;1;1104;10406;1;1;1;2;1;1;1;BlockProcFischi;BlockList;1;200;0;;-999999;9;12035;0;1;473;12508;1;1;1;1;ProcFischi1;ListBlockFischi;12;1;1;0;0;5;Po3_B;225;4;ug;5;2;50;1;12;4;1;TrialProc;998;1310;Po3_B;334;1910;1575;ListFischi1;0;;2;203;95384;8;15;1934;97318;526;1;1934;1;990;273;1408;1;1
TMS_Ibrahim;47;1;"<?xml version=""1.0""?>\n<Clock xmlns:dt=""urn:schemas-microsoft-com:datatypes""><Description dt:dt=""string"">E-Prime Primary Realtime Clock</Description><StartTime><Timestamp dt:dt=""int"">0</Timestamp><DateUtc dt:dt=""string"">2022-12-05T09:57:53Z</DateUtc></StartTime><FrequencyChanges><FrequencyChange><Frequency dt:dt=""r8"">3312880</Frequency><Timestamp dt:dt=""r8"">17910787328</Timestamp><Current dt:dt=""r8"">0</Current><DateUtc dt:dt=""string"">2022-12-05T09:57:53Z</DateUtc></FrequencyChange></FrequencyChanges></Clock>\n";TMS_Ibrahim-47-1;75.030;1.0.0.561;1;;731593199;2.0.10.242;2.0.10.242;12/05/2022;05/12/2022 09:57;10:57:53;2.0.10.147;0;;-999999;20;9302;0;1;1104;10406;1;1;1;2;1;1;1;BlockProcFischi;BlockList;1;200;0;;-999999;9;12035;0;1;473;12508;1;1;1;1;ProcFischi1;ListBlockFischi;13;0;2;0;0;5;Pr2_B;;1;op;1;2;11;1;13;1;0;TrialProc;2087;715;Pr2_B;409;1656;1247;ListFischi1;0;;1;201;102391;12;155;1934;104325;670;1;1;1;376;521;-669;1;0
TMS_Ibrahim;47;1;"<?xml version=""1.0""?>\n<Clock xmlns:dt=""urn:schemas-microsoft-com:datatypes""><Description dt:dt=""string"">E-Prime Primary Realtime Clock</Description><StartTime><Timestamp dt:dt=""int"">0</Timestamp><DateUtc dt:dt=""string"">2022-12-05T09:57:53Z</DateUtc></StartTime><FrequencyChanges><FrequencyChange><Frequency dt:dt=""r8"">3312880</Frequency><Timestamp dt:dt=""r8"">17910787328</Timestamp><Current dt:dt=""r8"">0</Current><DateUtc dt:dt=""string"">2022-12-05T09:57:53Z</DateUtc></FrequencyChange></FrequencyChanges></Clock>\n";TMS_Ibrahim-47-1;75.030;1.0.0.561;1;;731593199;2.0.10.242;2.0.10.242;12/05/2022;05/12/2022 09:57;10:57:53;2.0.10.147;0;;-999999;20;9302;0;1;1104;10406;1;1;1;2;1;1;1;BlockProcFischi;BlockList;1;200;0;;-999999;9;12035;0;1;473;12508;1;1;1;1;ProcFischi1;ListBlockFischi;14;0;1;0;1;5;Po5_B;;4;ug;1;2;62;1;14;4;1;TrialProc;3112;985;Po5_B;409;1656;1477;ListFischi1;0;;2;203;108825;15;15;2284;111109;572;1;1;1;607;378;-571;1;0
TMS_Ibrahim;47;1;"<?xml version=""1.0""?>\n<Clock xmlns:dt=""urn:schemas-microsoft-com:datatypes""><Description dt:dt=""string"">E-Prime Primary Realtime Clock</Description><StartTime><Timestamp dt:dt=""int"">0</Timestamp><DateUtc dt:dt=""string"">2022-12-05T09:57:53Z</DateUtc></StartTime><FrequencyChanges><FrequencyChange><Frequency dt:dt=""r8"">3312880</Frequency><Timestamp dt:dt=""r8"">17910787328</Timestamp><Current dt:dt=""r8"">0</Current><DateUtc dt:dt=""string"">2022-12-05T09:57:53Z</DateUtc></FrequencyChange></FrequencyChanges></Clock>\n";TMS_Ibrahim-47-1;75.030;1.0.0.561;1;;731593199;2.0.10.242;2.0.10.242;12/05/2022;05/12/2022 09:57;10:57:53;2.0.10.147;0;;-999999;20;9302;0;1;1104;10406;1;1;1;2;1;1;1;BlockProcFischi;BlockList;1;200;0;;-999999;9;12035;0;1;473;12508;1;1;1;1;ProcFischi1;ListBlockFischi;15;1;1;1;0;3;Pomod_B;200;2;op;3;2;48;1;15;2;0;TrialProc;774;1316;Pomod_B;409;2085;1675;ListFischi1;0;;1;201;115584;13;13;2117;117701;933;1;2117;1;768;320;1184;1;1
TMS_Ibrahim;47;1;"<?xml version=""1.0""?>\n<Clock xmlns:dt=""urn:schemas-microsoft-com:datatypes""><Description dt:dt=""string"">E-Prime Primary Realtime Clock</Description><StartTime><Timestamp dt:dt=""int"">0</Timestamp><DateUtc dt:dt=""string"">2022-12-05T09:57:53Z</DateUtc></StartTime><FrequencyChanges><FrequencyChange><Frequency dt:dt=""r8"">3312880</Frequency><Timestamp dt:dt=""r8"">17910787328</Timestamp><Current dt:dt=""r8"">0</Current><DateUtc dt:dt=""string"">2022-12-05T09:57:53Z</DateUtc></FrequencyChange></FrequencyChanges></Clock>\n";TMS_Ibrahim-47-1;75.030;1.0.0.561;1;;731593199;2.0.10.242;2.0.10.242;12/05/2022;05/12/2022 09:57;10:57:53;2.0.10.147;0;;-999999;20;9302;0;1;1104;10406;1;1;1;2;1;1;1;BlockProcFischi;BlockList;1;200;0;;-999999;9;12035;0;1;473;12508;1;1;1;1;ProcFischi1;ListBlockFischi;16;1;2;0;0;5;Pr8_B;200;1;op;5;2;10;1;16;1;0;TrialProc;788;717;Pr8_B;232;1975;1743;ListFischi1;0;;2;203;122553;15;15;1996;124549;748;1;1996;1;407;574;1248;1;1
TMS_Ibrahim;47;1;"<?xml version=""1.0""?>\n<Clock xmlns:dt=""urn:schemas-microsoft-com:datatypes""><Description dt:dt=""string"">E-Prime Primary Realtime Clock</Description><StartTime><Timestamp dt:dt=""int"">0</Timestamp><DateUtc dt:dt=""string"">2022-12-05T09:57:53Z</DateUtc></StartTime><FrequencyChanges><FrequencyChange><Frequency dt:dt=""r8"">3312880</Frequency><Timestamp dt:dt=""r8"">17910787328</Timestamp><Current dt:dt=""r8"">0</Current><DateUtc dt:dt=""string"">2022-12-05T09:57:53Z</DateUtc></FrequencyChange></FrequencyChanges></Clock>\n";TMS_Ibrahim-47-1;75.030;1.0.0.561;1;;731593199;2.0.10.242;2.0.10.242;12/05/2022;05/12/2022 09:57;10:57:53;2.0.10.147;0;;-999999;20;9302;0;1;1104;10406;1;1;1;2;1;1;1;BlockProcFischi;BlockList;1;200;0;;-999999;9;12035;0;1;473;12508;1;1;1;1;ProcFischi1;ListBlockFischi;17;1;1;0;1;3;Po4_B;200;2;op;3;2;45;1;17;2;0;TrialProc;813;1344;Po4_B;3;1721;1718;ListFischi1;0;;1;201;129523;16;133;2529;132052;626;1;1746;1;652;560;1120;1;1
TMS_Ibrahim;47;1;"<?xml version=""1.0""?>\n<Clock xmlns:dt=""urn:schemas-microsoft-com:datatypes""><Description dt:dt=""string"">E-Prime Primary Realtime Clock</Description><StartTime><Timestamp dt:dt=""int"">0</Timestamp><DateUtc dt:dt=""string"">2022-12-05T09:57:53Z</DateUtc></StartTime><FrequencyChanges><FrequencyChange><Frequency dt:dt=""r8"">3312880</Frequency><Timestamp dt:dt=""r8"">17910787328</Timestamp><Current dt:dt=""r8"">0</Current><DateUtc dt:dt=""string"">2022-12-05T09:57:53Z</DateUtc></FrequencyChange></FrequencyChanges></Clock>\n";TMS_Ibrahim-47-1;75.030;1.0.0.561;1;;731593199;2.0.10.242;2.0.10.242;12/05/2022;05/12/2022 09:57;10:57:53;2.0.10.147;0;;-999999;20;9302;0;1;1104;10406;1;1;1;2;1;1;1;BlockProcFischi;BlockList;1;200;0;;-999999;9;12035;0;1;473;12508;1;1;1;1;ProcFischi1;ListBlockFischi;18;1;1;1;1;5;Pomod_B;225;4;ug;5;2;64;1;18;4;1;TrialProc;971;1315;Pomod_B;254;1929;1674;ListFischi1;0;;2;203;136163;13;15;1953;138116;545;1;1953;1;492;225;1408;1;1
TMS_Ibrahim;47;1;"<?xml version=""1.0""?>\n<Clock xmlns:dt=""urn:schemas-microsoft-com:datatypes""><Description dt:dt=""string"">E-Prime Primary Realtime Clock</Description><StartTime><Timestamp dt:dt=""int"">0</Timestamp><DateUtc dt:dt=""string"">2022-12-05T09:57:53Z</DateUtc></StartTime><FrequencyChanges><FrequencyChange><Frequency dt:dt=""r8"">3312880</Frequency><Timestamp dt:dt=""r8"">17910787328</Timestamp><Current dt:dt=""r8"">0</Current><DateUtc dt:dt=""string"">2022-12-05T09:57:53Z</DateUtc></FrequencyChange></FrequencyChanges></Clock>\n";TMS_Ibrahim-47-1;75.030;1.0.0.561;1;;731593199;2.0.10.242;2.0.10.242;12/05/2022;05/12/2022 09:57;10:57:53;2.0.10.147;0;;-999999;20;9302;0;1;1104;10406;1;1;1;2;1;1;1;BlockProcFischi;BlockList;1;200;0;;-999999;9;12035;0;1;473;12508;1;1;1;1;ProcFischi1;ListBlockFischi;19;1;2;0;0;3;Pr3_B;250;3;ug;3;2;23;1;19;3;1;TrialProc;632;720;Pr3_B;339;2059;1719;ListFischi1;0;;2;201;143343;17;13;2085;145428;869;1;2085;1;1088;522;1216;1;1
TMS_Ibrahim;47;1;"<?xml version=""1.0""?>\n<Clock xmlns:dt=""urn:schemas-microsoft-com:datatypes""><Description dt:dt=""string"">E-Prime Primary Realtime Clock</Description><StartTime><Timestamp dt:dt=""int"">0</Timestamp><DateUtc dt:dt=""string"">2022-12-05T09:57:53Z</DateUtc></StartTime><FrequencyChanges><FrequencyChange><Frequency dt:dt=""r8"">3312880</Frequency><Timestamp dt:dt=""r8"">17910787328</Timestamp><Current dt:dt=""r8"">0</Current><DateUtc dt:dt=""string"">2022-12-05T09:57:53Z</DateUtc></FrequencyChange></FrequencyChanges></Clock>\n";TMS_Ibrahim-47-1;75.030;1.0.0.561;1;;731593199;2.0.10.242;2.0.10.242;12/05/2022;05/12/2022 09:57;10:57:53;2.0.10.147;0;;-999999;20;9302;0;1;1104;10406;1;1;1;2;1;1;1;BlockProcFischi;BlockList;1;200;0;;-999999;9;12035;0;1;473;12508;1;1;1;1;ProcFischi1;ListBlockFischi;20;1;1;0;0;3;Po8_B;175;2;op;3;2;42;1;20;2;0;TrialProc;567;1244;Po8_B;294;1872;1578;ListFischi1;0;;2;203;150348;9;13;1896;152244;472;1;1896;1;483;492;1424;1;1
TMS_Ibrahim;47;1;"<?xml version=""1.0""?>\n<Clock xmlns:dt=""urn:schemas-microsoft-com:datatypes""><Description dt:dt=""string"">E-Prime Primary Realtime Clock</Description><StartTime><Timestamp dt:dt=""int"">0</Timestamp><DateUtc dt:dt=""string"">2022-12-05T09:57:53Z</DateUtc></StartTime><FrequencyChanges><FrequencyChange><Frequency dt:dt=""r8"">3312880</Frequency><Timestamp dt:dt=""r8"">17910787328</Timestamp><Current dt:dt=""r8"">0</Current><DateUtc dt:dt=""string"">2022-12-05T09:57:53Z</DateUtc></FrequencyChange></FrequencyChanges></Clock>\n";TMS_Ibrahim-47-1;75.030;1.0.0.561;1;;731593199;2.0.10.242;2.0.10.242;12/05/2022;05/12/2022 09:57;10:57:53;2.0.10.147;0;;-999999;20;9302;0;1;1104;10406;1;1;1;2;1;1;1;BlockProcFischi;BlockList;1;200;0;;-999999;9;12035;0;1;473;12508;1;1;1;1;ProcFischi1;ListBlockFischi;21;1;1;0;2;5;Po4_B;225;4;ug;5;2;61;1;21;4;1;TrialProc;915;1339;Po4_B;8;1718;1711;ListFischi1;0;;2;203;157132;9;15;1752;158884;568;1;1752;1;223;295;1184;1;1
TMS_Ibrahim;47;1;"<?xml version=""1.0""?>\n<Clock xmlns:dt=""urn:schemas-microsoft-com:datatypes""><Description dt:dt=""string"">E-Prime Primary Realtime Clock</Description><StartTime><Timestamp dt:dt=""int"">0</Timestamp><DateUtc dt:dt=""string"">2022-12-05T09:57:53Z</DateUtc></StartTime><FrequencyChanges><FrequencyChange><Frequency dt:dt=""r8"">3312880</Frequency><Timestamp dt:dt=""r8"">17910787328</Timestamp><Current dt:dt=""r8"">0</Current><DateUtc dt:dt=""string"">2022-12-05T09:57:53Z</DateUtc></FrequencyChange></FrequencyChanges></Clock>\n";TMS_Ibrahim-47-1;75.030;1.0.0.561;1;;731593199;2.0.10.242;2.0.10.242;12/05/2022;05/12/2022 09:57;10:57:53;2.0.10.147;0;;-999999;20;9302;0;1;1104;10406;1;1;1;2;1;1;1;BlockProcFischi;BlockList;1;200;0;;-999999;9;12035;0;1;473;12508;1;1;1;1;ProcFischi1;ListBlockFischi;22;0;2;0;1;5;Pr4_B;;1;op;1;2;13;1;22;1;0;TrialProc;1316;668;Pr4_B;8;1718;1242;ListFischi1;0;;1;201;164413;5;15;1750;166163;374;1;1;1;305;377;-373;1;0
TMS_Ibrahim;47;1;"<?xml version=""1.0""?>\n<Clock xmlns:dt=""urn:schemas-microsoft-com:datatypes""><Description dt:dt=""string"">E-Prime Primary Realtime Clock</Description><StartTime><Timestamp dt:dt=""int"">0</Timestamp><DateUtc dt:dt=""string"">2022-12-05T09:57:53Z</DateUtc></StartTime><FrequencyChanges><FrequencyChange><Frequency dt:dt=""r8"">3312880</Frequency><Timestamp dt:dt=""r8"">17910787328</Timestamp><Current dt:dt=""r8"">0</Current><DateUtc dt:dt=""string"">2022-12-05T09:57:53Z</DateUtc></FrequencyChange></FrequencyChanges></Clock>\n";TMS_Ibrahim-47-1;75.030;1.0.0.561;1;;731593199;2.0.10.242;2.0.10.242;12/05/2022;05/12/2022 09:57;10:57:53;2.0.10.147;0;;-999999;20;9302;0;1;1104;10406;1;1;1;2;1;1;1;BlockProcFischi;BlockList;1;200;0;;-999999;9;12035;0;1;473;12508;1;1;1;1;ProcFischi1;ListBlockFischi;23;1;2;1;1;5;Prmod_B;200;1;op;5;2;16;1;23;1;0;TrialProc;1180;1314;Prmod_B;177;1823;1646;ListFischi1;0;;2;203;171244;12;15;1847;173091;407;1;1847;1;336;426;1440;1;1
TMS_Ibrahim;47;1;"<?xml version=""1.0""?>\n<Clock xmlns:dt=""urn:schemas-microsoft-com:datatypes""><Description dt:dt=""string"">E-Prime Primary Realtime Clock</Description><StartTime><Timestamp dt:dt=""int"">0</Timestamp><DateUtc dt:dt=""string"">2022-12-05T09:57:53Z</DateUtc></StartTime><FrequencyChanges><FrequencyChange><Frequency dt:dt=""r8"">3312880</Frequency><Timestamp dt:dt=""r8"">17910787328</Timestamp><Current dt:dt=""r8"">0</Current><DateUtc dt:dt=""string"">2022-12-05T09:57:53Z</DateUtc></FrequencyChange></FrequencyChanges></Clock>\n";TMS_Ibrahim-47-1;75.030;1.0.0.561;1;;731593199;2.0.10.242;2.0.10.242;12/05/2022;05/12/2022 09:57;10:57:53;2.0.10.147;0;;-999999;20;9302;0;1;1104;10406;1;1;1;2;1;1;1;BlockProcFischi;BlockList;1;200;0;;-999999;9;12035;0;1;473;12508;1;1;1;1;ProcFischi1;ListBlockFischi;24;1;1;0;1;3;Po5_B;175;2;op;3;2;46;1;24;2;0;TrialProc;604;980;Po5_B;174;1648;1474;ListFischi1;0;;1;201;178202;11;13;1673;179875;473;1;1673;1;780;582;1200;1;1
TMS_Ibrahim;47;1;"<?xml version=""1.0""?>\n<Clock xmlns:dt=""urn:schemas-microsoft-com:datatypes""><Description dt:dt=""string"">E-Prime Primary Realtime Clock</Description><StartTime><Timestamp dt:dt=""int"">0</Timestamp><DateUtc dt:dt=""string"">2022-12-05T09:57:53Z</DateUtc></StartTime><FrequencyChanges><FrequencyChange><Frequency dt:dt=""r8"">3312880</Frequency><Timestamp dt:dt=""r8"">17910787328</Timestamp><Current dt:dt=""r8"">0</Current><DateUtc dt:dt=""string"">2022-12-05T09:57:53Z</DateUtc></FrequencyChange></FrequencyChanges></Clock>\n";TMS_Ibrahim-47-1;75.030;1.0.0.561;1;;731593199;2.0.10.242;2.0.10.242;12/05/2022;05/12/2022 09:57;10:57:53;2.0.10.147;0;;-999999;20;9302;0;1;1104;10406;1;1;1;2;1;1;1;BlockProcFischi;BlockList;1;200;0;;-999999;9;12035;0;1;473;12508;1;1;1;1;ProcFischi1;ListBlockFischi;25;0;2;0;1;3;Pr5_B;;3;ug;1;2;20;1;25;3;1;TrialProc;3612;669;Pr5_B;174;1648;1270;ListFischi1;0;;2;203;185510;7;13;1724;187234;461;1;1;1;301;533;-460;1;0
TMS_Ibrahim;47;1;"<?xml version=""1.0""?>\n<Clock xmlns:dt=""urn:schemas-microsoft-com:datatypes""><Description dt:dt=""string"">E-Prime Primary Realtime Clock</Description><StartTime><Timestamp dt:dt=""int"">0</Timestamp><DateUtc dt:dt=""string"">2022-12-05T09:57:53Z</DateUtc></StartTime><FrequencyChanges><FrequencyChange><Frequency dt:dt=""r8"">3312880</Frequency><Timestamp dt:dt=""r8"">17910787328</Timestamp><Current dt:dt=""r8"">0</Current><DateUtc dt:dt=""string"">2022-12-05T09:57:53Z</DateUtc></FrequencyChange></FrequencyChanges></Clock>\n";TMS_Ibrahim-47-1;75.030;1.0.0.561;1;;731593199;2.0.10.242;2.0.10.242;12/05/2022;05/12/2022 09:57;10:57:53;2.0.10.147;0;;-999999;20;9302;0;1;1104;10406;1;1;1;2;1;1;1;BlockProcFischi;BlockList;1;200;0;;-999999;9;12035;0;1;473;12508;1;1;1;1;ProcFischi1;ListBlockFischi;26;1;2;0;1;3;Pr8_B;250;3;ug;3;2;21;1;26;3;1;TrialProc;739;709;Pr8_B;373;2107;1734;ListFischi1;0;;1;201;192149;5;13;2141;194290;813;1;2141;1;729;491;1328;1;1
TMS_Ibrahim;47;1;"<?xml version=""1.0""?>\n<Clock xmlns:dt=""urn:schemas-microsoft-com:datatypes""><Description dt:dt=""string"">E-Prime Primary Realtime Clock</Description><StartTime><Timestamp dt:dt=""int"">0</Timestamp><DateUtc dt:dt=""string"">2022-12-05T09:57:53Z</DateUtc></StartTime><FrequencyChanges><FrequencyChange><Frequency dt:dt=""r8"">3312880</Frequency><Timestamp dt:dt=""r8"">17910787328</Timestamp><Current dt:dt=""r8"">0</Current><DateUtc dt:dt=""string"">2022-12-05T09:57:53Z</DateUtc></FrequencyChange></FrequencyChanges></Clock>\n";TMS_Ibrahim-47-1;75.030;1.0.0.561;1;;731593199;2.0.10.242;2.0.10.242;12/05/2022;05/12/2022 09:57;10:57:53;2.0.10.147;0;;-999999;20;9302;0;1;1104;10406;1;1;1;2;1;1;1;BlockProcFischi;BlockList;1;200;0;;-999999;9;12035;0;1;473;12508;1;1;1;1;ProcFischi1;ListBlockFischi;27;1;1;0;0;5;Po4_B;200;4;ug;5;2;51;1;27;4;1;TrialProc;1016;1358;Po4_B;112;1606;1718;ListFischi1;0;;2;203;198855;16;15;1627;200482;795;1;1627;1;436;372;832;1;1
TMS_Ibrahim;47;1;"<?xml version=""1.0""?>\n<Clock xmlns:dt=""urn:schemas-microsoft-com:datatypes""><Description dt:dt=""string"">E-Prime Primary Realtime Clock</Description><StartTime><Timestamp dt:dt=""int"">0</Timestamp><DateUtc dt:dt=""string"">2022-12-05T09:57:53Z</DateUtc></StartTime><FrequencyChanges><FrequencyChange><Frequency dt:dt=""r8"">3312880</Frequency><Timestamp dt:dt=""r8"">17910787328</Timestamp><Current dt:dt=""r8"">0</Current><DateUtc dt:dt=""string"">2022-12-05T09:57:53Z</DateUtc></FrequencyChange></FrequencyChanges></Clock>\n";TMS_Ibrahim-47-1;75.030;1.0.0.561;1;;731593199;2.0.10.242;2.0.10.242;12/05/2022;05/12/2022 09:57;10:57:53;2.0.10.147;0;;-999999;20;9302;0;1;1104;10406;1;1;1;2;1;1;1;BlockProcFischi;BlockList;1;200;0;;-999999;9;12035;0;1;473;12508;1;1;1;1;ProcFischi1;ListBlockFischi;28;1;2;0;2;3;Pr4_B;250;3;ug;3;2;24;1;28;3;1;TrialProc;748;676;Pr4_B;345;1595;1250;ListFischi1;0;;2;201;206254;15;13;1620;207874;516;1;1620;1;738;203;1104;1;1
TMS_Ibrahim;47;1;"<?xml version=""1.0""?>\n<Clock xmlns:dt=""urn:schemas-microsoft-com:datatypes""><Description dt:dt=""string"">E-Prime Primary Realtime Clock</Description><StartTime><Timestamp dt:dt=""int"">0</Timestamp><DateUtc dt:dt=""string"">2022-12-05T09:57:53Z</DateUtc></StartTime><FrequencyChanges><FrequencyChange><Frequency dt:dt=""r8"">3312880</Frequency><Timestamp dt:dt=""r8"">17910787328</Timestamp><Current dt:dt=""r8"">0</Current><DateUtc dt:dt=""string"">2022-12-05T09:57:53Z</DateUtc></FrequencyChange></FrequencyChanges></Clock>\n";TMS_Ibrahim-47-1;75.030;1.0.0.561;1;;731593199;2.0.10.242;2.0.10.242;12/05/2022;05/12/2022 09:57;10:57:53;2.0.10.147;0;;-999999;20;9302;0;1;1104;10406;1;1;1;2;1;1;1;BlockProcFischi;BlockList;1;200;0;;-999999;9;12035;0;1;473;12508;1;1;1;1;ProcFischi1;ListBlockFischi;29;1;2;0;0;3;Pr3_B;275;3;ug;3;2;28;1;29;3;1;TrialProc;700;720;Pr3_B;241;1961;1719;ListFischi1;0;;2;203;213234;18;13;1984;215218;800;1;1984;1;658;453;1184;1;1
TMS_Ibrahim;47;1;"<?xml version=""1.0""?>\n<Clock xmlns:dt=""urn:schemas-microsoft-com:datatypes""><Description dt:dt=""string"">E-Prime Primary Realtime Clock</Description><StartTime><Timestamp dt:dt=""int"">0</Timestamp><DateUtc dt:dt=""string"">2022-12-05T09:57:53Z</DateUtc></StartTime><FrequencyChanges><FrequencyChange><Frequency dt:dt=""r8"">3312880</Frequency><Timestamp dt:dt=""r8"">17910787328</Timestamp><Current dt:dt=""r8"">0</Current><DateUtc dt:dt=""string"">2022-12-05T09:57:53Z</DateUtc></FrequencyChange></FrequencyChanges></Clock>\n";TMS_Ibrahim-47-1;75.030;1.0.0.561;1;;731593199;2.0.10.242;2.0.10.242;12/05/2022;05/12/2022 09:57;10:57:53;2.0.10.147;0;;-999999;20;9302;0;1;1104;10406;1;1;1;2;1;1;1;BlockProcFischi;BlockList;1;200;0;;-999999;9;12035;0;1;473;12508;1;1;1;1;ProcFischi1;ListBlockFischi;30;1;2;0;1;5;Pr4_B;200;1;op;5;2;8;1;30;1;0;TrialProc;775;675;Pr4_B;296;1545;1249;ListFischi1;0;;1;201;220290;13;15;1567;221857;431;1;1567;1;740;349;1136;1;1
TMS_Ibrahim;47;1;"<?xml version=""1.0""?>\n<Clock xmlns:dt=""urn:schemas-microsoft-com:datatypes""><Description dt:dt=""string"">E-Prime Primary Realtime Clock</Description><StartTime><Timestamp dt:dt=""int"">0</Timestamp><DateUtc dt:dt=""string"">2022-12-05T09:57:53Z</DateUtc></StartTime><FrequencyChanges><FrequencyChange><Frequency dt:dt=""r8"">3312880</Frequency><Timestamp dt:dt=""r8"">17910787328</Timestamp><Current dt:dt=""r8"">0</Current><DateUtc dt:dt=""string"">2022-12-05T09:57:53Z</DateUtc></FrequencyChange></FrequencyChanges></Clock>\n";TMS_Ibrahim-47-1;75.030;1.0.0.561;1;;731593199;2.0.10.242;2.0.10.242;12/05/2022;05/12/2022 09:57;10:57:53;2.0.10.147;0;;-999999;20;9302;0;1;1104;10406;1;1;1;2;1;1;1;BlockProcFischi;BlockList;1;200;0;;-999999;9;12035;0;1;473;12508;1;1;1;1;ProcFischi1;ListBlockFischi;31;1;2;0;2;5;Pr4_B;200;1;op;5;2;3;1;31;1;0;TrialProc;802;675;Pr4_B;347;1595;1249;ListFischi1;0;;2;203;227314;13;15;1615;228929;463;1;1615;1;429;387;1152;1;1
TMS_Ibrahim;47;1;"<?xml version=""1.0""?>\n<Clock xmlns:dt=""urn:schemas-microsoft-com:datatypes""><Description dt:dt=""string"">E-Prime Primary Realtime Clock</Description><StartTime><Timestamp dt:dt=""int"">0</Timestamp><DateUtc dt:dt=""string"">2022-12-05T09:57:53Z</DateUtc></StartTime><FrequencyChanges><FrequencyChange><Frequency dt:dt=""r8"">3312880</Frequency><Timestamp dt:dt=""r8"">17910787328</Timestamp><Current dt:dt=""r8"">0</Current><DateUtc dt:dt=""string"">2022-12-05T09:57:53Z</DateUtc></FrequencyChange></FrequencyChanges></Clock>\n";TMS_Ibrahim-47-1;75.030;1.0.0.561;1;;731593199;2.0.10.242;2.0.10.242;12/05/2022;05/12/2022 09:57;10:57:53;2.0.10.147;0;;-999999;20;9302;0;1;1104;10406;1;1;1;2;1;1;1;BlockProcFischi;BlockList;1;200;0;;-999999;9;12035;0;1;473;12508;1;1;1;1;ProcFischi1;ListBlockFischi;32;1;1;0;0;5;Po4_B;175;4;ug;5;2;56;1;32;4;1;TrialProc;704;1341;Po4_B;22;1693;1715;ListFischi1;0;;1;201;234019;12;155;1918;235937;494;1;1726;1;172;489;1232;1;1
TMS_Ibrahim;47;1;"<?xml version=""1.0""?>\n<Clock xmlns:dt=""urn:schemas-microsoft-com:datatypes""><Description dt:dt=""string"">E-Prime Primary Realtime Clock</Description><StartTime><Timestamp dt:dt=""int"">0</Timestamp><DateUtc dt:dt=""string"">2022-12-05T09:57:53Z</DateUtc></StartTime><FrequencyChanges><FrequencyChange><Frequency dt:dt=""r8"">3312880</Frequency><Timestamp dt:dt=""r8"">17910787328</Timestamp><Current dt:dt=""r8"">0</Current><DateUtc dt:dt=""string"">2022-12-05T09:57:53Z</DateUtc></FrequencyChange></FrequencyChanges></Clock>\n";TMS_Ibrahim-47-1;75.030;1.0.0.561;1;;731593199;2.0.10.242;2.0.10.242;12/05/2022;05/12/2022 09:57;10:57:53;2.0.10.147;0;;-999999;20;9302;0;1;1104;10406;1;1;1;2;1;1;1;BlockProcFischi;BlockList;1;200;0;;-999999;9;12035;0;1;473;12508;1;1;1;1;ProcFischi1;ListBlockFischi;33;0;2;1;0;5;Prmod_B;;1;op;1;2;15;1;33;1;0;TrialProc;2156;1311;Prmod_B;22;1693;1645;ListFischi1;0;;2;203;240912;10;15;2049;242961;625;1;1;1;262;593;-624;1;0
TMS_Ibrahim;47;1;"<?xml version=""1.0""?>\n<Clock xmlns:dt=""urn:schemas-microsoft-com:datatypes""><Description dt:dt=""string"">E-Prime Primary Realtime Clock</Description><StartTime><Timestamp dt:dt=""int"">0</Timestamp><DateUtc dt:dt=""string"">2022-12-05T09:57:53Z</DateUtc></StartTime><FrequencyChanges><FrequencyChange><Frequency dt:dt=""r8"">3312880</Frequency><Timestamp dt:dt=""r8"">17910787328</Timestamp><Current dt:dt=""r8"">0</Current><DateUtc dt:dt=""string"">2022-12-05T09:57:53Z</DateUtc></FrequencyChange></FrequencyChanges></Clock>\n";TMS_Ibrahim-47-1;75.030;1.0.0.561;1;;731593199;2.0.10.242;2.0.10.242;12/05/2022;05/12/2022 09:57;10:57:53;2.0.10.147;0;;-999999;20;9302;0;1;1104;10406;1;1;1;2;1;1;1;BlockProcFischi;BlockList;1;200;0;;-999999;9;12035;0;1;473;12508;1;1;1;1;ProcFischi1;ListBlockFischi;34;1;2;0;0;3;Pr4_B;250;3;ug;3;2;29;1;34;3;1;TrialProc;971;673;Pr4_B;292;1537;1246;ListFischi1;0;;1;201;247762;10;133;1662;249424;446;1;1566;1;527;418;1120;1;1
TMS_Ibrahim;47;1;"<?xml version=""1.0""?>\n<Clock xmlns:dt=""urn:schemas-microsoft-com:datatypes""><Description dt:dt=""string"">E-Prime Primary Realtime Clock</Description><StartTime><Timestamp dt:dt=""int"">0</Timestamp><DateUtc dt:dt=""string"">2022-12-05T09:57:53Z</DateUtc></StartTime><FrequencyChanges><FrequencyChange><Frequency dt:dt=""r8"">3312880</Frequency><Timestamp dt:dt=""r8"">17910787328</Timestamp><Current dt:dt=""r8"">0</Current><DateUtc dt:dt=""string"">2022-12-05T09:57:53Z</DateUtc></FrequencyChange></FrequencyChanges></Clock>\n";TMS_Ibrahim-47-1;75.030;1.0.0.561;1;;731593199;2.0.10.242;2.0.10.242;12/05/2022;05/12/2022 09:57;10:57:53;2.0.10.147;0;;-999999;20;9302;0;1;1104;10406;1;1;1;2;1;1;1;BlockProcFischi;BlockList;1;200;0;;-999999;9;12035;0;1;473;12508;1;1;1;1;ProcFischi1;ListBlockFischi;35;1;1;0;1;3;Po2_B;175;2;op;3;2;38;1;35;2;0;TrialProc;859;1580;Po2_B;61;1867;1805;ListFischi1;0;;2;203;254545;11;13;1887;256432;799;1;1887;1;593;246;1088;1;1
TMS_Ibrahim;47;1;"<?xml version=""1.0""?>\n<Clock xmlns:dt=""urn:schemas-microsoft-com:datatypes""><Description dt:dt=""string"">E-Prime Primary Realtime Clock</Description><StartTime><Timestamp dt:dt=""int"">0</Timestamp><DateUtc dt:dt=""string"">2022-12-05T09:57:53Z</DateUtc></StartTime><FrequencyChanges><FrequencyChange><Frequency dt:dt=""r8"">3312880</Frequency><Timestamp dt:dt=""r8"">17910787328</Timestamp><Current dt:dt=""r8"">0</Current><DateUtc dt:dt=""string"">2022-12-05T09:57:53Z</DateUtc></FrequencyChange></FrequencyChanges></Clock>\n";TMS_Ibrahim-47-1;75.030;1.0.0.561;1;;731593199;2.0.10.242;2.0.10.242;12/05/2022;05/12/2022 09:57;10:57:53;2.0.10.147;0;;-999999;20;9302;0;1;1104;10406;1;1;1;2;1;1;1;BlockProcFischi;BlockList;1;200;0;;-999999;9;12035;0;1;473;12508;1;1;1;1;ProcFischi1;ListBlockFischi;36;1;2;0;1;3;Pr2_B;250;3;ug;3;2;22;1;36;3;1;TrialProc;861;708;Pr2_B;372;1614;1242;ListFischi1;0;;2;201;261681;6;13;1647;263328;399;1;1647;1;740;337;1248;1;1
TMS_Ibrahim;47;1;"<?xml version=""1.0""?>\n<Clock xmlns:dt=""urn:schemas-microsoft-com:datatypes""><Description dt:dt=""string"">E-Prime Primary Realtime Clock</Description><StartTime><Timestamp dt:dt=""int"">0</Timestamp><DateUtc dt:dt=""string"">2022-12-05T09:57:53Z</DateUtc></StartTime><FrequencyChanges><FrequencyChange><Frequency dt:dt=""r8"">3312880</Frequency><Timestamp dt:dt=""r8"">17910787328</Timestamp><Current dt:dt=""r8"">0</Current><DateUtc dt:dt=""string"">2022-12-05T09:57:53Z</DateUtc></FrequencyChange></FrequencyChanges></Clock>\n";TMS_Ibrahim-47-1;75.030;1.0.0.561;1;;731593199;2.0.10.242;2.0.10.242;12/05/2022;05/12/2022 09:57;10:57:53;2.0.10.147;0;;-999999;20;9302;0;1;1104;10406;1;1;1;2;1;1;1;BlockProcFischi;BlockList;1;200;0;;-999999;9;12035;0;1;473;12508;1;1;1;1;ProcFischi1;ListBlockFischi;37;1;1;0;0;3;Po3_B;150;2;op;3;2;34;1;37;2;0;TrialProc;802;1314;Po3_B;299;1880;1580;ListFischi1;0;;2;203;268392;12;13;1912;270304;696;1;1912;1;396;357;1216;1;1
TMS_Ibrahim;47;1;"<?xml version=""1.0""?>\n<Clock xmlns:dt=""urn:schemas-microsoft-com:datatypes""><Description dt:dt=""string"">E-Prime Primary Realtime Clock</Description><StartTime><Timestamp dt:dt=""int"">0</Timestamp><DateUtc dt:dt=""string"">2022-12-05T09:57:53Z</DateUtc></StartTime><FrequencyChanges><FrequencyChange><Frequency dt:dt=""r8"">3312880</Frequency><Timestamp dt:dt=""r8"">17910787328</Timestamp><Current dt:dt=""r8"">0</Current><DateUtc dt:dt=""string"">2022-12-05T09:57:53Z</DateUtc></FrequencyChange></FrequencyChanges></Clock>\n";TMS_Ibrahim-47-1;75.030;1.0.0.561;1;;731593199;2.0.10.242;2.0.10.242;12/05/2022;05/12/2022 09:57;10:57:53;2.0.10.147;0;;-999999;20;9302;0;1;1104;10406;1;1;1;2;1;1;1;BlockProcFischi;BlockList;1;200;0;;-999999;9;12035;0;1;473;12508;1;1;1;1;ProcFischi1;ListBlockFischi;38;0;1;0;0;5;Po5_B;;4;ug;1;2;52;1;38;4;1;TrialProc;1648;984;Po5_B;299;1880;1478;ListFischi1;0;;1;201;275254;14;15;2041;277295;649;1;1;1;382;382;-648;1;0
TMS_Ibrahim;47;1;"<?xml version=""1.0""?>\n<Clock xmlns:dt=""urn:schemas-microsoft-com:datatypes""><Description dt:dt=""string"">E-Prime Primary Realtime Clock</Description><StartTime><Timestamp dt:dt=""int"">0</Timestamp><DateUtc dt:dt=""string"">2022-12-05T09:57:53Z</DateUtc></StartTime><FrequencyChanges><FrequencyChange><Frequency dt:dt=""r8"">3312880</Frequency><Timestamp dt:dt=""r8"">17910787328</Timestamp><Current dt:dt=""r8"">0</Current><DateUtc dt:dt=""string"">2022-12-05T09:57:53Z</DateUtc></FrequencyChange></FrequencyChanges></Clock>\n";TMS_Ibrahim-47-1;75.030;1.0.0.561;1;;731593199;2.0.10.242;2.0.10.242;12/05/2022;05/12/2022 09:57;10:57:53;2.0.10.147;0;;-999999;20;9302;0;1;1104;10406;1;1;1;2;1;1;1;BlockProcFischi;BlockList;1;200;0;;-999999;9;12035;0;1;473;12508;1;1;1;1;ProcFischi1;ListBlockFischi;39;1;2;0;0;5;Pr3_B;225;1;op;5;2;7;1;39;1;0;TrialProc;688;759;Pr3_B;223;1982;1759;ListFischi1;0;;5;210;287376;21;15;2015;289391;655;1;2015;1;604;376;1360;1;1
TMS_Ibrahim;47;1;"<?xml version=""1.0""?>\n<Clock xmlns:dt=""urn:schemas-microsoft-com:datatypes""><Description dt:dt=""string"">E-Prime Primary Realtime Clock</Description><StartTime><Timestamp dt:dt=""int"">0</Timestamp><DateUtc dt:dt=""string"">2022-12-05T09:57:53Z</DateUtc></StartTime><FrequencyChanges><FrequencyChange><Frequency dt:dt=""r8"">3312880</Frequency><Timestamp dt:dt=""r8"">17910787328</Timestamp><Current dt:dt=""r8"">0</Current><DateUtc dt:dt=""string"">2022-12-05T09:57:53Z</DateUtc></FrequencyChange></FrequencyChanges></Clock>\n";TMS_Ibrahim-47-1;75.030;1.0.0.561;1;;731593199;2.0.10.242;2.0.10.242;12/05/2022;05/12/2022 09:57;10:57:53;2.0.10.147;0;;-999999;20;9302;0;1;1104;10406;1;1;1;2;1;1;1;BlockProcFischi;BlockList;1;200;0;;-999999;9;12035;0;1;473;12508;1;1;1;1;ProcFischi1;ListBlockFischi;40;1;2;0;2;3;Pr5_B;250;3;ug;3;2;30;1;40;3;1;TrialProc;1043;670;Pr5_B;467;1735;1268;ListFischi1;0;;2;201;294266;8;13;1765;296031;469;1;1765;1;707;263;1296;1;1
TMS_Ibrahim;47;1;"<?xml version=""1.0""?>\n<Clock xmlns:dt=""urn:schemas-microsoft-com:datatypes""><Description dt:dt=""string"">E-Prime Primary Realtime Clock</Description><StartTime><Timestamp dt:dt=""int"">0</Timestamp><DateUtc dt:dt=""string"">2022-12-05T09:57:53Z</DateUtc></StartTime><FrequencyChanges><FrequencyChange><Frequency dt:dt=""r8"">3312880</Frequency><Timestamp dt:dt=""r8"">17910787328</Timestamp><Current dt:dt=""r8"">0</Current><DateUtc dt:dt=""string"">2022-12-05T09:57:53Z</DateUtc></FrequencyChange></FrequencyChanges></Clock>\n";TMS_Ibrahim-47-1;75.030;1.0.0.561;1;;731593199;2.0.10.242;2.0.10.242;12/05/2022;05/12/2022 09:57;10:57:53;2.0.10.147;0;;-999999;20;9302;0;1;1104;10406;1;1;1;2;1;1;1;BlockProcFischi;BlockList;1;200;0;;-999999;9;12035;0;1;473;12508;1;1;1;1;ProcFischi1;ListBlockFischi;41;0;2;0;0;5;Pr3_B;;1;op;1;2;2;1;41;1;0;TrialProc;1360;716;Pr3_B;467;1735;1715;ListFischi1;0;;2;203;300964;14;15;2218;303182;1018;1;1;1;279;420;-1017;1;0
TMS_Ibrahim;47;1;"<?xml version=""1.0""?>\n<Clock xmlns:dt=""urn:schemas-microsoft-com:datatypes""><Description dt:dt=""string"">E-Prime Primary Realtime Clock</Description><StartTime><Timestamp dt:dt=""int"">0</Timestamp><DateUtc dt:dt=""string"">2022-12-05T09:57:53Z</DateUtc></StartTime><FrequencyChanges><FrequencyChange><Frequency dt:dt=""r8"">3312880</Frequency><Timestamp dt:dt=""r8"">17910787328</Timestamp><Current dt:dt=""r8"">0</Current><DateUtc dt:dt=""string"">2022-12-05T09:57:53Z</DateUtc></FrequencyChange></FrequencyChanges></Clock>\n";TMS_Ibrahim-47-1;75.030;1.0.0.561;1;;731593199;2.0.10.242;2.0.10.242;12/05/2022;05/12/2022 09:57;10:57:53;2.0.10.147;0;;-999999;20;9302;0;1;1104;10406;1;1;1;2;1;1;1;BlockProcFischi;BlockList;1;200;0;;-999999;9;12035;0;1;473;12508;1;1;1;1;ProcFischi1;ListBlockFischi;42;0;2;0;0;3;Pr4_B;;3;ug;1;2;19;1;42;3;1;TrialProc;2376;670;Pr4_B;472;2187;1243;ListFischi1;0;;1;201;307808;7;13;1822;309630;686;1;1;1;485;570;-685;1;0
TMS_Ibrahim;47;1;"<?xml version=""1.0""?>\n<Clock xmlns:dt=""urn:schemas-microsoft-com:datatypes""><Description dt:dt=""string"">E-Prime Primary Realtime Clock</Description><StartTime><Timestamp dt:dt=""int"">0</Timestamp><DateUtc dt:dt=""string"">2022-12-05T09:57:53Z</DateUtc></StartTime><FrequencyChanges><FrequencyChange><Frequency dt:dt=""r8"">3312880</Frequency><Timestamp dt:dt=""r8"">17910787328</Timestamp><Current dt:dt=""r8"">0</Current><DateUtc dt:dt=""string"">2022-12-05T09:57:53Z</DateUtc></FrequencyChange></FrequencyChanges></Clock>\n";TMS_Ibrahim-47-1;75.030;1.0.0.561;1;;731593199;2.0.10.242;2.0.10.242;12/05/2022;05/12/2022 09:57;10:57:53;2.0.10.147;0;;-999999;20;9302;0;1;1104;10406;1;1;1;2;1;1;1;BlockProcFischi;BlockList;1;200;0;;-999999;9;12035;0;1;473;12508;1;1;1;1;ProcFischi1;ListBlockFischi;43;1;2;0;0;3;Pr3_B;275;3;ug;3;2;18;1;43;3;1;TrialProc;647;710;Pr3_B;317;2025;1709;ListFischi1;0;;1;203;314379;7;13;2051;316430;499;1;2051;1;776;288;1552;1;1
TMS_Ibrahim;47;1;"<?xml version=""1.0""?>\n<Clock xmlns:dt=""urn:schemas-microsoft-com:datatypes""><Description dt:dt=""string"">E-Prime Primary Realtime Clock</Description><StartTime><Timestamp dt:dt=""int"">0</Timestamp><DateUtc dt:dt=""string"">2022-12-05T09:57:53Z</DateUtc></StartTime><FrequencyChanges><FrequencyChange><Frequency dt:dt=""r8"">3312880</Frequency><Timestamp dt:dt=""r8"">17910787328</Timestamp><Current dt:dt=""r8"">0</Current><DateUtc dt:dt=""string"">2022-12-05T09:57:53Z</DateUtc></FrequencyChange></FrequencyChanges></Clock>\n";TMS_Ibrahim-47-1;75.030;1.0.0.561;1;;731593199;2.0.10.242;2.0.10.242;12/05/2022;05/12/2022 09:57;10:57:53;2.0.10.147;0;;-999999;20;9302;0;1;1104;10406;1;1;1;2;1;1;1;BlockProcFischi;BlockList;1;200;0;;-999999;9;12035;0;1;473;12508;1;1;1;1;ProcFischi1;ListBlockFischi;44;1;1;0;0;5;Po8_B;150;4;ug;5;2;53;1;44;4;1;TrialProc;761;1252;Po8_B;335;1921;1586;ListFischi1;0;;1;201;321153;17;15;1949;323102;413;1;1949;1;710;233;1536;1;1
TMS_Ibrahim;47;1;"<?xml version=""1.0""?>\n<Clock xmlns:dt=""urn:schemas-microsoft-com:datatypes""><Description dt:dt=""string"">E-Prime Primary Realtime Clock</Description><StartTime><Timestamp dt:dt=""int"">0</Timestamp><DateUtc dt:dt=""string"">2022-12-05T09:57:53Z</DateUtc></StartTime><FrequencyChanges><FrequencyChange><Frequency dt:dt=""r8"">3312880</Frequency><Timestamp dt:dt=""r8"">17910787328</Timestamp><Current dt:dt=""r8"">0</Current><DateUtc dt:dt=""string"">2022-12-05T09:57:53Z</DateUtc></FrequencyChange></FrequencyChanges></Clock>\n";TMS_Ibrahim-47-1;75.030;1.0.0.561;1;;731593199;2.0.10.242;2.0.10.242;12/05/2022;05/12/2022 09:57;10:57:53;2.0.10.147;0;;-999999;20;9302;0;1;1104;10406;1;1;1;2;1;1;1;BlockProcFischi;BlockList;1;200;0;;-999999;9;12035;0;1;473;12508;1;1;1;1;ProcFischi1;ListBlockFischi;45;1;1;1;1;3;Pomod_B;150;2;op;3;2;47;1;45;2;0;TrialProc;1019;1312;Pomod_B;405;2076;1671;ListFischi1;0;;2;203;327878;10;133;2327;330205;680;1;2104;1;849;507;1424;1;1
TMS_Ibrahim;47;1;"<?xml version=""1.0""?>\n<Clock xmlns:dt=""urn:schemas-microsoft-com:datatypes""><Description dt:dt=""string"">E-Prime Primary Realtime Clock</Description><StartTime><Timestamp dt:dt=""int"">0</Timestamp><DateUtc dt:dt=""string"">2022-12-05T09:57:53Z</DateUtc></StartTime><FrequencyChanges><FrequencyChange><Frequency dt:dt=""r8"">3312880</Frequency><Timestamp dt:dt=""r8"">17910787328</Timestamp><Current dt:dt=""r8"">0</Current><DateUtc dt:dt=""string"">2022-12-05T09:57:53Z</DateUtc></FrequencyChange></FrequencyChanges></Clock>\n";TMS_Ibrahim-47-1;75.030;1.0.0.561;1;;731593199;2.0.10.242;2.0.10.242;12/05/2022;05/12/2022 09:57;10:57:53;2.0.10.147;0;;-999999;20;9302;0;1;1104;10406;1;1;1;2;1;1;1;BlockProcFischi;BlockList;1;200;0;;-999999;9;12035;0;1;473;12508;1;1;1;1;ProcFischi1;ListBlockFischi;46;1;1;0;2;3;Po4_B;150;2;op;3;2;40;1;46;2;0;TrialProc;1127;1344;Po4_B;60;1657;1717;ListFischi1;0;;2;201;334402;16;133;2667;337069;507;1;1691;1;344;470;1184;1;1
TMS_Ibrahim;47;1;"<?xml version=""1.0""?>\n<Clock xmlns:dt=""urn:schemas-microsoft-com:datatypes""><Description dt:dt=""string"">E-Prime Primary Realtime Clock</Description><StartTime><Timestamp dt:dt=""int"">0</Timestamp><DateUtc dt:dt=""string"">2022-12-05T09:57:53Z</DateUtc></StartTime><FrequencyChanges><FrequencyChange><Frequency dt:dt=""r8"">3312880</Frequency><Timestamp dt:dt=""r8"">17910787328</Timestamp><Current dt:dt=""r8"">0</Current><DateUtc dt:dt=""string"">2022-12-05T09:57:53Z</DateUtc></FrequencyChange></FrequencyChanges></Clock>\n";TMS_Ibrahim-47-1;75.030;1.0.0.561;1;;731593199;2.0.10.242;2.0.10.242;12/05/2022;05/12/2022 09:57;10:57:53;2.0.10.147;0;;-999999;20;9302;0;1;1104;10406;1;1;1;2;1;1;1;BlockProcFischi;BlockList;1;200;0;;-999999;9;12035;0;1;473;12508;1;1;1;1;ProcFischi1;ListBlockFischi;47;0;1;0;1;5;Po5_B;;4;ug;3;2;57;1;47;4;1;TrialProc;1465;977;Po5_B;165;1635;1470;ListFischi1;0;;2;203;340514;9;13;1659;342173;619;1;1659;1;585;544;1040;1;0
TMS_Ibrahim;47;1;"<?xml version=""1.0""?>\n<Clock xmlns:dt=""urn:schemas-microsoft-com:datatypes""><Description dt:dt=""string"">E-Prime Primary Realtime Clock</Description><StartTime><Timestamp dt:dt=""int"">0</Timestamp><DateUtc dt:dt=""string"">2022-12-05T09:57:53Z</DateUtc></StartTime><FrequencyChanges><FrequencyChange><Frequency dt:dt=""r8"">3312880</Frequency><Timestamp dt:dt=""r8"">17910787328</Timestamp><Current dt:dt=""r8"">0</Current><DateUtc dt:dt=""string"">2022-12-05T09:57:53Z</DateUtc></FrequencyChange></FrequencyChanges></Clock>\n";TMS_Ibrahim-47-1;75.030;1.0.0.561;1;;731593199;2.0.10.242;2.0.10.242;12/05/2022;05/12/2022 09:57;10:57:53;2.0.10.147;0;;-999999;20;9302;0;1;1104;10406;1;1;1;2;1;1;1;BlockProcFischi;BlockList;1;200;0;;-999999;9;12035;0;1;473;12508;1;1;1;1;ProcFischi1;ListBlockFischi;48;1;2;0;0;5;Pr5_B;225;1;op;5;2;14;1;48;1;0;TrialProc;1058;676;Pr5_B;481;1757;1276;ListFischi1;0;;2;201;347454;12;15;1775;349229;607;1;1775;1;651;231;1168;1;1
TMS_Ibrahim;47;1;"<?xml version=""1.0""?>\n<Clock xmlns:dt=""urn:schemas-microsoft-com:datatypes""><Description dt:dt=""string"">E-Prime Primary Realtime Clock</Description><StartTime><Timestamp dt:dt=""int"">0</Timestamp><DateUtc dt:dt=""string"">2022-12-05T09:57:53Z</DateUtc></StartTime><FrequencyChanges><FrequencyChange><Frequency dt:dt=""r8"">3312880</Frequency><Timestamp dt:dt=""r8"">17910787328</Timestamp><Current dt:dt=""r8"">0</Current><DateUtc dt:dt=""string"">2022-12-05T09:57:53Z</DateUtc></FrequencyChange></FrequencyChanges></Clock>\n";TMS_Ibrahim-47-1;75.030;1.0.0.561;1;;731593199;2.0.10.242;2.0.10.242;12/05/2022;05/12/2022 09:57;10:57:53;2.0.10.147;0;;-999999;20;9302;0;1;1104;10406;1;1;1;2;1;1;1;BlockProcFischi;BlockList;1;200;0;;-999999;9;12035;0;1;473;12508;1;1;1;1;ProcFischi1;ListBlockFischi;49;1;1;1;1;5;Pomod_B;150;4;ug;5;2;63;1;49;4;1;TrialProc;839;1312;Pomod_B;427;2099;1671;ListFischi1;0;;2;203;354214;10;15;2119;356333;679;1;2119;1;643;218;1440;1;1
TMS_Ibrahim;47;1;"<?xml version=""1.0""?>\n<Clock xmlns:dt=""urn:schemas-microsoft-com:datatypes""><Description dt:dt=""string"">E-Prime Primary Realtime Clock</Description><StartTime><Timestamp dt:dt=""int"">0</Timestamp><DateUtc dt:dt=""string"">2022-12-05T09:57:53Z</DateUtc></StartTime><FrequencyChanges><FrequencyChange><Frequency dt:dt=""r8"">3312880</Frequency><Timestamp dt:dt=""r8"">17910787328</Timestamp><Current dt:dt=""r8"">0</Current><DateUtc dt:dt=""string"">2022-12-05T09:57:53Z</DateUtc></FrequencyChange></FrequencyChanges></Clock>\n";TMS_Ibrahim-47-1;75.030;1.0.0.561;1;;731593199;2.0.10.242;2.0.10.242;12/05/2022;05/12/2022 09:57;10:57:53;2.0.10.147;0;;-999999;20;9302;0;1;1104;10406;1;1;1;2;1;1;1;BlockProcFischi;BlockList;1;200;0;;-999999;9;12035;0;1;473;12508;1;1;1;1;ProcFischi1;ListBlockFischi;50;1;2;0;1;5;Pr5_B;225;1;op;5;2;4;1;50;1;0;TrialProc;1127;678;Pr5_B;608;1884;1277;ListFischi1;0;;2;201;360845;16;15;1919;362764;559;1;1919;1;596;326;1360;1;1
TMS_Ibrahim;47;1;"<?xml version=""1.0""?>\n<Clock xmlns:dt=""urn:schemas-microsoft-com:datatypes""><Description dt:dt=""string"">E-Prime Primary Realtime Clock</Description><StartTime><Timestamp dt:dt=""int"">0</Timestamp><DateUtc dt:dt=""string"">2022-12-05T09:57:53Z</DateUtc></StartTime><FrequencyChanges><FrequencyChange><Frequency dt:dt=""r8"">3312880</Frequency><Timestamp dt:dt=""r8"">17910787328</Timestamp><Current dt:dt=""r8"">0</Current><DateUtc dt:dt=""string"">2022-12-05T09:57:53Z</DateUtc></FrequencyChange></FrequencyChanges></Clock>\n";TMS_Ibrahim-47-1;75.030;1.0.0.561;1;;731593199;2.0.10.242;2.0.10.242;12/05/2022;05/12/2022 09:57;10:57:53;2.0.10.147;0;;-999999;20;9302;0;1;1104;10406;1;1;1;2;1;1;1;BlockProcFischi;BlockList;1;200;0;;-999999;9;12035;0;1;473;12508;1;1;1;1;ProcFischi1;ListBlockFischi;51;0;2;0;1;3;Pr2_B;;3;ug;1;2;17;1;51;3;1;TrialProc;1121;716;Pr2_B;608;1884;1250;ListFischi1;0;;2;203;367337;15;13;1651;368988;579;1;1;1;284;223;-578;1;0
TMS_Ibrahim;47;1;"<?xml version=""1.0""?>\n<Clock xmlns:dt=""urn:schemas-microsoft-com:datatypes""><Description dt:dt=""string"">E-Prime Primary Realtime Clock</Description><StartTime><Timestamp dt:dt=""int"">0</Timestamp><DateUtc dt:dt=""string"">2022-12-05T09:57:53Z</DateUtc></StartTime><FrequencyChanges><FrequencyChange><Frequency dt:dt=""r8"">3312880</Frequency><Timestamp dt:dt=""r8"">17910787328</Timestamp><Current dt:dt=""r8"">0</Current><DateUtc dt:dt=""string"">2022-12-05T09:57:53Z</DateUtc></FrequencyChange></FrequencyChanges></Clock>\n";TMS_Ibrahim-47-1;75.030;1.0.0.561;1;;731593199;2.0.10.242;2.0.10.242;12/05/2022;05/12/2022 09:57;10:57:53;2.0.10.147;0;;-999999;20;9302;0;1;1104;10406;1;1;1;2;1;1;1;BlockProcFischi;BlockList;1;200;0;;-999999;9;12035;0;1;473;12508;1;1;1;1;ProcFischi1;ListBlockFischi;52;1;1;0;0;3;Po3_B;125;2;op;3;2;39;1;52;2;0;TrialProc;923;1313;Po3_B;405;1985;1580;ListFischi1;0;;1;201;373992;11;13;2004;375996;708;1;2004;1;723;455;1296;1;1
TMS_Ibrahim;47;1;"<?xml version=""1.0""?>\n<Clock xmlns:dt=""urn:schemas-microsoft-com:datatypes""><Description dt:dt=""string"">E-Prime Primary Realtime Clock</Description><StartTime><Timestamp dt:dt=""int"">0</Timestamp><DateUtc dt:dt=""string"">2022-12-05T09:57:53Z</DateUtc></StartTime><FrequencyChanges><FrequencyChange><Frequency dt:dt=""r8"">3312880</Frequency><Timestamp dt:dt=""r8"">17910787328</Timestamp><Current dt:dt=""r8"">0</Current><DateUtc dt:dt=""string"">2022-12-05T09:57:53Z</DateUtc></FrequencyChange></FrequencyChanges></Clock>\n";TMS_Ibrahim-47-1;75.030;1.0.0.561;1;;731593199;2.0.10.242;2.0.10.242;12/05/2022;05/12/2022 09:57;10:57:53;2.0.10.147;0;;-999999;20;9302;0;1;1104;10406;1;1;1;2;1;1;1;BlockProcFischi;BlockList;1;200;0;;-999999;9;12035;0;1;473;12508;1;1;1;1;ProcFischi1;ListBlockFischi;53;1;2;0;2;5;Pr8_B;225;1;op;5;2;5;1;53;1;0;TrialProc;1056;715;Pr8_B;159;1902;1742;ListFischi1;0;;2;203;380747;13;15;1937;382684;561;1;1937;1;365;582;1376;1;1
TMS_Ibrahim;47;1;"<?xml version=""1.0""?>\n<Clock xmlns:dt=""urn:schemas-microsoft-com:datatypes""><Description dt:dt=""string"">E-Prime Primary Realtime Clock</Description><StartTime><Timestamp dt:dt=""int"">0</Timestamp><DateUtc dt:dt=""string"">2022-12-05T09:57:53Z</DateUtc></StartTime><FrequencyChanges><FrequencyChange><Frequency dt:dt=""r8"">3312880</Frequency><Timestamp dt:dt=""r8"">17910787328</Timestamp><Current dt:dt=""r8"">0</Current><DateUtc dt:dt=""string"">2022-12-05T09:57:53Z</DateUtc></FrequencyChange></FrequencyChanges></Clock>\n";TMS_Ibrahim-47-1;75.030;1.0.0.561;1;;731593199;2.0.10.242;2.0.10.242;12/05/2022;05/12/2022 09:57;10:57:53;2.0.10.147;0;;-999999;20;9302;0;1;1104;10406;1;1;1;2;1;1;1;BlockProcFischi;BlockList;1;200;0;;-999999;9;12035;0;1;473;12508;1;1;1;1;ProcFischi1;ListBlockFischi;54;1;2;0;0;5;Pr5_B;200;1;op;5;2;9;1;54;1;0;TrialProc;850;674;Pr5_B;421;1693;1273;ListFischi1;0;;2;201;387706;11;15;1713;389419;482;1;1713;1;627;530;1231;1;1
TMS_Ibrahim;47;1;"<?xml version=""1.0""?>\n<Clock xmlns:dt=""urn:schemas-microsoft-com:datatypes""><Description dt:dt=""string"">E-Prime Primary Realtime Clock</Description><StartTime><Timestamp dt:dt=""int"">0</Timestamp><DateUtc dt:dt=""string"">2022-12-05T09:57:53Z</DateUtc></StartTime><FrequencyChanges><FrequencyChange><Frequency dt:dt=""r8"">3312880</Frequency><Timestamp dt:dt=""r8"">17910787328</Timestamp><Current dt:dt=""r8"">0</Current><DateUtc dt:dt=""string"">2022-12-05T09:57:53Z</DateUtc></FrequencyChange></FrequencyChanges></Clock>\n";TMS_Ibrahim-47-1;75.030;1.0.0.561;1;;731593199;2.0.10.242;2.0.10.242;12/05/2022;05/12/2022 09:57;10:57:53;2.0.10.147;0;;-999999;20;9302;0;1;1104;10406;1;1;1;2;1;1;1;BlockProcFischi;BlockList;1;200;0;;-999999;9;12035;0;1;473;12508;1;1;1;1;ProcFischi1;ListBlockFischi;55;1;1;0;2;5;Po2_B;150;4;ug;5;2;54;1;55;4;1;TrialProc;1014;1577;Po2_B;21;1826;1804;ListFischi1;0;;2;203;394585;10;15;1858;396443;370;1;1858;1;428;575;1488;1;1
TMS_Ibrahim;47;1;"<?xml version=""1.0""?>\n<Clock xmlns:dt=""urn:schemas-microsoft-com:datatypes""><Description dt:dt=""string"">E-Prime Primary Realtime Clock</Description><StartTime><Timestamp dt:dt=""int"">0</Timestamp><DateUtc dt:dt=""string"">2022-12-05T09:57:53Z</DateUtc></StartTime><FrequencyChanges><FrequencyChange><Frequency dt:dt=""r8"">3312880</Frequency><Timestamp dt:dt=""r8"">17910787328</Timestamp><Current dt:dt=""r8"">0</Current><DateUtc dt:dt=""string"">2022-12-05T09:57:53Z</DateUtc></FrequencyChange></FrequencyChanges></Clock>\n";TMS_Ibrahim-47-1;75.030;1.0.0.561;1;;731593199;2.0.10.242;2.0.10.242;12/05/2022;05/12/2022 09:57;10:57:53;2.0.10.147;0;;-999999;20;9302;0;1;1104;10406;1;1;1;2;1;1;1;BlockProcFischi;BlockList;1;200;0;;-999999;9;12035;0;1;473;12508;1;1;1;1;ProcFischi1;ListBlockFischi;56;1;1;0;0;5;Po2_B;125;4;ug;5;2;59;1;56;4;1;TrialProc;943;1581;Po2_B;97;1710;1807;ListFischi1;0;;3;201;401752;13;155;2755;404507;355;1;1731;1;482;253;1376;1;1
TMS_Ibrahim;47;1;"<?xml version=""1.0""?>\n<Clock xmlns:dt=""urn:schemas-microsoft-com:datatypes""><Description dt:dt=""string"">E-Prime Primary Realtime Clock</Description><StartTime><Timestamp dt:dt=""int"">0</Timestamp><DateUtc dt:dt=""string"">2022-12-05T09:57:53Z</DateUtc></StartTime><FrequencyChanges><FrequencyChange><Frequency dt:dt=""r8"">3312880</Frequency><Timestamp dt:dt=""r8"">17910787328</Timestamp><Current dt:dt=""r8"">0</Current><DateUtc dt:dt=""string"">2022-12-05T09:57:53Z</DateUtc></FrequencyChange></FrequencyChanges></Clock>\n";TMS_Ibrahim-47-1;75.030;1.0.0.561;1;;731593199;2.0.10.242;2.0.10.242;12/05/2022;05/12/2022 09:57;10:57:53;2.0.10.147;0;;-999999;20;9302;0;1;1104;10406;1;1;1;2;1;1;1;BlockProcFischi;BlockList;1;200;0;;-999999;9;12035;0;1;473;12508;1;1;1;1;ProcFischi1;ListBlockFischi;57;1;1;0;0;5;Po2_B;100;4;ug;5;2;49;1;57;4;1;TrialProc;1011;1577;Po2_B;85;1887;1803;ListFischi1;0;;2;203;407927;9;15;1908;409835;676;1;1908;1;367;426;1232;1;1
TMS_Ibrahim;47;1;"<?xml version=""1.0""?>\n<Clock xmlns:dt=""urn:schemas-microsoft-com:datatypes""><Description dt:dt=""string"">E-Prime Primary Realtime Clock</Description><StartTime><Timestamp dt:dt=""int"">0</Timestamp><DateUtc dt:dt=""string"">2022-12-05T09:57:53Z</DateUtc></StartTime><FrequencyChanges><FrequencyChange><Frequency dt:dt=""r8"">3312880</Frequency><Timestamp dt:dt=""r8"">17910787328</Timestamp><Current dt:dt=""r8"">0</Current><DateUtc dt:dt=""string"">2022-12-05T09:57:53Z</DateUtc></FrequencyChange></FrequencyChanges></Clock>\n";TMS_Ibrahim-47-1;75.030;1.0.0.561;1;;731593199;2.0.10.242;2.0.10.242;12/05/2022;05/12/2022 09:57;10:57:53;2.0.10.147;0;;-999999;20;9302;0;1;1104;10406;1;1;1;2;1;1;1;BlockProcFischi;BlockList;1;200;0;;-999999;9;12035;0;1;473;12508;1;1;1;1;ProcFischi1;ListBlockFischi;58;1;1;0;0;5;Po3_B;100;4;ug;5;2;55;1;58;4;1;TrialProc;998;1315;Po3_B;127;1709;1581;ListFischi1;0;;2;203;415081;12;15;1729;416810;594;1;1729;1;496;359;1135;1;1
TMS_Ibrahim;47;1;"<?xml version=""1.0""?>\n<Clock xmlns:dt=""urn:schemas-microsoft-com:datatypes""><Description dt:dt=""string"">E-Prime Primary Realtime Clock</Description><StartTime><Timestamp dt:dt=""int"">0</Timestamp><DateUtc dt:dt=""string"">2022-12-05T09:57:53Z</DateUtc></StartTime><FrequencyChanges><FrequencyChange><Frequency dt:dt=""r8"">3312880</Frequency><Timestamp dt:dt=""r8"">17910787328</Timestamp><Current dt:dt=""r8"">0</Current><DateUtc dt:dt=""string"">2022-12-05T09:57:53Z</DateUtc></FrequencyChange></FrequencyChanges></Clock>\n";TMS_Ibrahim-47-1;75.030;1.0.0.561;1;;731593199;2.0.10.242;2.0.10.242;12/05/2022;05/12/2022 09:57;10:57:53;2.0.10.147;0;;-999999;20;9302;0;1;1104;10406;1;1;1;2;1;1;1;BlockProcFischi;BlockList;1;200;0;;-999999;9;12035;0;1;473;12508;1;1;1;1;ProcFischi1;ListBlockFischi;59;1;1;0;1;3;Po5_B;125;2;op;3;2;36;1;59;2;0;TrialProc;984;978;Po5_B;190;1661;1470;ListFischi1;0;;2;201;422295;9;13;1683;423978;451;1;1683;1;325;279;1232;1;1
TMS_Ibrahim;47;1;"<?xml version=""1.0""?>\n<Clock xmlns:dt=""urn:schemas-microsoft-com:datatypes""><Description dt:dt=""string"">E-Prime Primary Realtime Clock</Description><StartTime><Timestamp dt:dt=""int"">0</Timestamp><DateUtc dt:dt=""string"">2022-12-05T09:57:53Z</DateUtc></StartTime><FrequencyChanges><FrequencyChange><Frequency dt:dt=""r8"">3312880</Frequency><Timestamp dt:dt=""r8"">17910787328</Timestamp><Current dt:dt=""r8"">0</Current><DateUtc dt:dt=""string"">2022-12-05T09:57:53Z</DateUtc></FrequencyChange></FrequencyChanges></Clock>\n";TMS_Ibrahim-47-1;75.030;1.0.0.561;1;;731593199;2.0.10.242;2.0.10.242;12/05/2022;05/12/2022 09:57;10:57:53;2.0.10.147;0;;-999999;20;9302;0;1;1104;10406;1;1;1;2;1;1;1;BlockProcFischi;BlockList;1;200;0;;-999999;9;12035;0;1;473;12508;1;1;1;1;ProcFischi1;ListBlockFischi;60;1;1;0;2;3;Po5_B;125;2;op;3;2;41;1;60;2;0;TrialProc;1281;976;Po5_B;248;1718;1470;ListFischi1;0;;2;203;429187;7;13;1751;430938;439;1;1751;1;429;492;1312;1;1
TMS_Ibrahim;47;1;"<?xml version=""1.0""?>\n<Clock xmlns:dt=""urn:schemas-microsoft-com:datatypes""><Description dt:dt=""string"">E-Prime Primary Realtime Clock</Description><StartTime><Timestamp dt:dt=""int"">0</Timestamp><DateUtc dt:dt=""string"">2022-12-05T09:57:53Z</DateUtc></StartTime><FrequencyChanges><FrequencyChange><Frequency dt:dt=""r8"">3312880</Frequency><Timestamp dt:dt=""r8"">17910787328</Timestamp><Current dt:dt=""r8"">0</Current><DateUtc dt:dt=""string"">2022-12-05T09:57:53Z</DateUtc></FrequencyChange></FrequencyChanges></Clock>\n";TMS_Ibrahim-47-1;75.030;1.0.0.561;1;;731593199;2.0.10.242;2.0.10.242;12/05/2022;05/12/2022 09:57;10:57:53;2.0.10.147;0;;-999999;20;9302;0;1;1104;10406;1;1;1;2;1;1;1;BlockProcFischi;BlockList;1;200;0;;-999999;9;12035;0;1;473;12508;1;1;1;1;ProcFischi1;ListBlockFischi;61;1;1;0;0;3;Po4_B;150;2;op;3;2;35;1;61;2;0;TrialProc;762;1343;Po4_B;34;1681;1715;ListFischi1;0;;2;201;436392;13;13;1714;438106;466;1;1714;1;271;417;1248;1;1
TMS_Ibrahim;47;1;"<?xml version=""1.0""?>\n<Clock xmlns:dt=""urn:schemas-microsoft-com:datatypes""><Description dt:dt=""string"">E-Prime Primary Realtime Clock</Description><StartTime><Timestamp dt:dt=""int"">0</Timestamp><DateUtc dt:dt=""string"">2022-12-05T09:57:53Z</DateUtc></StartTime><FrequencyChanges><FrequencyChange><Frequency dt:dt=""r8"">3312880</Frequency><Timestamp dt:dt=""r8"">17910787328</Timestamp><Current dt:dt=""r8"">0</Current><DateUtc dt:dt=""string"">2022-12-05T09:57:53Z</DateUtc></FrequencyChange></FrequencyChanges></Clock>\n";TMS_Ibrahim-47-1;75.030;1.0.0.561;1;;731593199;2.0.10.242;2.0.10.242;12/05/2022;05/12/2022 09:57;10:57:53;2.0.10.147;0;;-999999;20;9302;0;1;1104;10406;1;1;1;2;1;1;1;BlockProcFischi;BlockList;1;200;0;;-999999;9;12035;0;1;473;12508;1;1;1;1;ProcFischi1;ListBlockFischi;62;0;2;1;1;3;Prmod_B;;3;ug;1;2;31;1;62;3;1;TrialProc;1543;1313;Prmod_B;34;1681;1648;ListFischi1;0;;2;203;443576;13;13;2049;445625;434;1;1;1;273;305;-433;1;0
TMS_Ibrahim;47;1;"<?xml version=""1.0""?>\n<Clock xmlns:dt=""urn:schemas-microsoft-com:datatypes""><Description dt:dt=""string"">E-Prime Primary Realtime Clock</Description><StartTime><Timestamp dt:dt=""int"">0</Timestamp><DateUtc dt:dt=""string"">2022-12-05T09:57:53Z</DateUtc></StartTime><FrequencyChanges><FrequencyChange><Frequency dt:dt=""r8"">3312880</Frequency><Timestamp dt:dt=""r8"">17910787328</Timestamp><Current dt:dt=""r8"">0</Current><DateUtc dt:dt=""string"">2022-12-05T09:57:53Z</DateUtc></FrequencyChange></FrequencyChanges></Clock>\n";TMS_Ibrahim-47-1;75.030;1.0.0.561;1;;731593199;2.0.10.242;2.0.10.242;12/05/2022;05/12/2022 09:57;10:57:53;2.0.10.147;0;;-999999;20;9302;0;1;1104;10406;1;1;1;2;1;1;1;BlockProcFischi;BlockList;1;200;0;;-999999;9;12035;0;1;473;12508;1;1;1;1;ProcFischi1;ListBlockFischi;63;1;1;0;0;3;Po8_B;125;2;op;3;2;37;1;63;2;0;TrialProc;691;1243;Po8_B;202;1779;1576;ListFischi1;0;;1;201;450406;7;13;1811;452217;451;1;1811;1;337;362;1360;1;1
TMS_Ibrahim;47;1;"<?xml version=""1.0""?>\n<Clock xmlns:dt=""urn:schemas-microsoft-com:datatypes""><Description dt:dt=""string"">E-Prime Primary Realtime Clock</Description><StartTime><Timestamp dt:dt=""int"">0</Timestamp><DateUtc dt:dt=""string"">2022-12-05T09:57:53Z</DateUtc></StartTime><FrequencyChanges><FrequencyChange><Frequency dt:dt=""r8"">3312880</Frequency><Timestamp dt:dt=""r8"">17910787328</Timestamp><Current dt:dt=""r8"">0</Current><DateUtc dt:dt=""string"">2022-12-05T09:57:53Z</DateUtc></FrequencyChange></FrequencyChanges></Clock>\n";TMS_Ibrahim-47-1;75.030;1.0.0.561;1;;731593199;2.0.10.242;2.0.10.242;12/05/2022;05/12/2022 09:57;10:57:53;2.0.10.147;0;;-999999;20;9302;0;1;1104;10406;1;1;1;2;1;1;1;BlockProcFischi;BlockList;1;200;0;;-999999;9;12035;0;1;473;12508;1;1;1;1;ProcFischi1;ListBlockFischi;64;0;2;0;1;3;Pr5_B;;3;ug;1;2;25;1;64;3;1;TrialProc;3385;677;Pr5_B;202;1779;1276;ListFischi1;0;;2;203;457250;13;13;1735;458985;471;1;1;1;279;539;-470;1;0
TMS_Ibrahim;47;3;"<?xml version=""1.0""?>\n<Clock xmlns:dt=""urn:schemas-microsoft-com:datatypes""><Description dt:dt=""string"">E-Prime Primary Realtime Clock</Description><StartTime><Timestamp dt:dt=""int"">0</Timestamp><DateUtc dt:dt=""string"">2022-12-05T10:55:39Z</DateUtc></StartTime><FrequencyChanges><FrequencyChange><Frequency dt:dt=""r8"">3312880</Frequency><Timestamp dt:dt=""r8"">29393949172</Timestamp><Current dt:dt=""r8"">0</Current><DateUtc dt:dt=""string"">2022-12-05T10:55:39Z</DateUtc></FrequencyChange></FrequencyChanges></Clock>\n";TMS_Ibrahim-47-3;75.030;1.0.0.561;1;;-670154549;2.0.10.242;2.0.10.242;12/05/2022;05/12/2022 10:55;11:55:39;2.0.10.147;0;;-999999;21;12264;0;1;1157;13421;1;1;1;2;1;2;1;BlockProcFischi;BlockList;1;250;0;;-999999;9;14908;0;1;1157;16065;1;1;1;1;ProcFischi1;ListBlockFischi;1;1;1;0;0;5;Po2_B;250;4;ug;5;2;54;1;1;4;1;TrialProc;707;1597;Po2_B;90;1914;1823;ListFischi1;0;;3;203;18163;30;15;1939;20102;739;1;1939;1;502;468;1200;1;1
TMS_Ibrahim;47;3;"<?xml version=""1.0""?>\n<Clock xmlns:dt=""urn:schemas-microsoft-com:datatypes""><Description dt:dt=""string"">E-Prime Primary Realtime Clock</Description><StartTime><Timestamp dt:dt=""int"">0</Timestamp><DateUtc dt:dt=""string"">2022-12-05T10:55:39Z</DateUtc></StartTime><FrequencyChanges><FrequencyChange><Frequency dt:dt=""r8"">3312880</Frequency><Timestamp dt:dt=""r8"">29393949172</Timestamp><Current dt:dt=""r8"">0</Current><DateUtc dt:dt=""string"">2022-12-05T10:55:39Z</DateUtc></FrequencyChange></FrequencyChanges></Clock>\n";TMS_Ibrahim-47-3;75.030;1.0.0.561;1;;-670154549;2.0.10.242;2.0.10.242;12/05/2022;05/12/2022 10:55;11:55:39;2.0.10.147;0;;-999999;21;12264;0;1;1157;13421;1;1;1;2;1;2;1;BlockProcFischi;BlockList;1;250;0;;-999999;9;14908;0;1;1157;16065;1;1;1;1;ProcFischi1;ListBlockFischi;2;0;2;0;0;3;Pr3_B;;3;ug;1;2;23;1;2;3;1;TrialProc;885;717;Pr3_B;90;1914;1717;ListFischi1;0;;2;201;25189;14;131;3680;28869;752;1;1;1;210;252;-751;1;0
TMS_Ibrahim;47;3;"<?xml version=""1.0""?>\n<Clock xmlns:dt=""urn:schemas-microsoft-com:datatypes""><Description dt:dt=""string"">E-Prime Primary Realtime Clock</Description><StartTime><Timestamp dt:dt=""int"">0</Timestamp><DateUtc dt:dt=""string"">2022-12-05T10:55:39Z</DateUtc></StartTime><FrequencyChanges><FrequencyChange><Frequency dt:dt=""r8"">3312880</Frequency><Timestamp dt:dt=""r8"">29393949172</Timestamp><Current dt:dt=""r8"">0</Current><DateUtc dt:dt=""string"">2022-12-05T10:55:39Z</DateUtc></FrequencyChange></FrequencyChanges></Clock>\n";TMS_Ibrahim-47-3;75.030;1.0.0.561;1;;-670154549;2.0.10.242;2.0.10.242;12/05/2022;05/12/2022 10:55;11:55:39;2.0.10.147;0;;-999999;21;12264;0;1;1157;13421;1;1;1;2;1;2;1;BlockProcFischi;BlockList;1;250;0;;-999999;9;14908;0;1;1157;16065;1;1;1;1;ProcFischi1;ListBlockFischi;3;1;1;0;0;5;Po3_B;225;4;ug;5;2;55;1;3;4;1;TrialProc;606;1317;Po3_B;334;1919;1585;ListFischi1;0;;2;203;31985;16;15;1940;33925;580;1;1940;1;389;422;1360;1;1
TMS_Ibrahim;47;3;"<?xml version=""1.0""?>\n<Clock xmlns:dt=""urn:schemas-microsoft-com:datatypes""><Description dt:dt=""string"">E-Prime Primary Realtime Clock</Description><StartTime><Timestamp dt:dt=""int"">0</Timestamp><DateUtc dt:dt=""string"">2022-12-05T10:55:39Z</DateUtc></StartTime><FrequencyChanges><FrequencyChange><Frequency dt:dt=""r8"">3312880</Frequency><Timestamp dt:dt=""r8"">29393949172</Timestamp><Current dt:dt=""r8"">0</Current><DateUtc dt:dt=""string"">2022-12-05T10:55:39Z</DateUtc></FrequencyChange></FrequencyChanges></Clock>\n";TMS_Ibrahim-47-3;75.030;1.0.0.561;1;;-670154549;2.0.10.242;2.0.10.242;12/05/2022;05/12/2022 10:55;11:55:39;2.0.10.147;0;;-999999;21;12264;0;1;1157;13421;1;1;1;2;1;2;1;BlockProcFischi;BlockList;1;250;0;;-999999;9;14908;0;1;1157;16065;1;1;1;1;ProcFischi1;ListBlockFischi;4;1;1;0;0;3;Po8_B;250;2;op;3;2;37;1;4;2;0;TrialProc;789;1252;Po8_B;152;1737;1585;ListFischi1;0;;2;201;38969;15;13;1756;40725;540;1;1756;1;338;350;1216;1;1
TMS_Ibrahim;47;3;"<?xml version=""1.0""?>\n<Clock xmlns:dt=""urn:schemas-microsoft-com:datatypes""><Description dt:dt=""string"">E-Prime Primary Realtime Clock</Description><StartTime><Timestamp dt:dt=""int"">0</Timestamp><DateUtc dt:dt=""string"">2022-12-05T10:55:39Z</DateUtc></StartTime><FrequencyChanges><FrequencyChange><Frequency dt:dt=""r8"">3312880</Frequency><Timestamp dt:dt=""r8"">29393949172</Timestamp><Current dt:dt=""r8"">0</Current><DateUtc dt:dt=""string"">2022-12-05T10:55:39Z</DateUtc></FrequencyChange></FrequencyChanges></Clock>\n";TMS_Ibrahim-47-3;75.030;1.0.0.561;1;;-670154549;2.0.10.242;2.0.10.242;12/05/2022;05/12/2022 10:55;11:55:39;2.0.10.147;0;;-999999;21;12264;0;1;1157;13421;1;1;1;2;1;2;1;BlockProcFischi;BlockList;1;250;0;;-999999;9;14908;0;1;1157;16065;1;1;1;1;ProcFischi1;ListBlockFischi;5;1;1;0;0;3;Po8_B;225;2;op;3;2;42;1;5;2;0;TrialProc;736;1243;Po8_B;250;1827;1576;ListFischi1;0;;2;203;45960;8;13;1853;47813;718;1;1853;1;518;282;1135;1;1
TMS_Ibrahim;47;3;"<?xml version=""1.0""?>\n<Clock xmlns:dt=""urn:schemas-microsoft-com:datatypes""><Description dt:dt=""string"">E-Prime Primary Realtime Clock</Description><StartTime><Timestamp dt:dt=""int"">0</Timestamp><DateUtc dt:dt=""string"">2022-12-05T10:55:39Z</DateUtc></StartTime><FrequencyChanges><FrequencyChange><Frequency dt:dt=""r8"">3312880</Frequency><Timestamp dt:dt=""r8"">29393949172</Timestamp><Current dt:dt=""r8"">0</Current><DateUtc dt:dt=""string"">2022-12-05T10:55:39Z</DateUtc></FrequencyChange></FrequencyChanges></Clock>\n";TMS_Ibrahim-47-3;75.030;1.0.0.561;1;;-670154549;2.0.10.242;2.0.10.242;12/05/2022;05/12/2022 10:55;11:55:39;2.0.10.147;0;;-999999;21;12264;0;1;1157;13421;1;1;1;2;1;2;1;BlockProcFischi;BlockList;1;250;0;;-999999;9;14908;0;1;1157;16065;1;1;1;1;ProcFischi1;ListBlockFischi;6;1;1;0;1;5;Po5_B;225;4;ug;5;2;62;1;6;4;1;TrialProc;847;976;Po5_B;608;2077;1469;ListFischi1;0;;2;203;52799;7;15;2101;54900;454;1;2101;1;1005;594;1647;1;1
TMS_Ibrahim;47;3;"<?xml version=""1.0""?>\n<Clock xmlns:dt=""urn:schemas-microsoft-com:datatypes""><Description dt:dt=""string"">E-Prime Primary Realtime Clock</Description><StartTime><Timestamp dt:dt=""int"">0</Timestamp><DateUtc dt:dt=""string"">2022-12-05T10:55:39Z</DateUtc></StartTime><FrequencyChanges><FrequencyChange><Frequency dt:dt=""r8"">3312880</Frequency><Timestamp dt:dt=""r8"">29393949172</Timestamp><Current dt:dt=""r8"">0</Current><DateUtc dt:dt=""string"">2022-12-05T10:55:39Z</DateUtc></FrequencyChange></FrequencyChanges></Clock>\n";TMS_Ibrahim-47-3;75.030;1.0.0.561;1;;-670154549;2.0.10.242;2.0.10.242;12/05/2022;05/12/2022 10:55;11:55:39;2.0.10.147;0;;-999999;21;12264;0;1;1157;13421;1;1;1;2;1;2;1;BlockProcFischi;BlockList;1;250;0;;-999999;9;14908;0;1;1157;16065;1;1;1;1;ProcFischi1;ListBlockFischi;7;1;1;0;2;5;Po4_B;225;4;ug;5;2;61;1;7;4;1;TrialProc;912;1338;Po4_B;76;1636;1713;ListFischi1;0;;2;203;59260;10;15;1656;60916;312;1;1656;1;312;301;1344;1;1
TMS_Ibrahim;47;3;"<?xml version=""1.0""?>\n<Clock xmlns:dt=""urn:schemas-microsoft-com:datatypes""><Description dt:dt=""string"">E-Prime Primary Realtime Clock</Description><StartTime><Timestamp dt:dt=""int"">0</Timestamp><DateUtc dt:dt=""string"">2022-12-05T10:55:39Z</DateUtc></StartTime><FrequencyChanges><FrequencyChange><Frequency dt:dt=""r8"">3312880</Frequency><Timestamp dt:dt=""r8"">29393949172</Timestamp><Current dt:dt=""r8"">0</Current><DateUtc dt:dt=""string"">2022-12-05T10:55:39Z</DateUtc></FrequencyChange></FrequencyChanges></Clock>\n";TMS_Ibrahim-47-3;75.030;1.0.0.561;1;;-670154549;2.0.10.242;2.0.10.242;12/05/2022;05/12/2022 10:55;11:55:39;2.0.10.147;0;;-999999;21;12264;0;1;1157;13421;1;1;1;2;1;2;1;BlockProcFischi;BlockList;1;250;0;;-999999;9;14908;0;1;1157;16065;1;1;1;1;ProcFischi1;ListBlockFischi;8;0;2;0;0;3;Pr3_B;;3;ug;1;2;18;1;8;3;1;TrialProc;1137;714;Pr3_B;76;1636;1713;ListFischi1;0;;2;203;66495;12;13;2181;68676;1189;1;1;1;243;444;-1188;1;0
TMS_Ibrahim;47;3;"<?xml version=""1.0""?>\n<Clock xmlns:dt=""urn:schemas-microsoft-com:datatypes""><Description dt:dt=""string"">E-Prime Primary Realtime Clock</Description><StartTime><Timestamp dt:dt=""int"">0</Timestamp><DateUtc dt:dt=""string"">2022-12-05T10:55:39Z</DateUtc></StartTime><FrequencyChanges><FrequencyChange><Frequency dt:dt=""r8"">3312880</Frequency><Timestamp dt:dt=""r8"">29393949172</Timestamp><Current dt:dt=""r8"">0</Current><DateUtc dt:dt=""string"">2022-12-05T10:55:39Z</DateUtc></FrequencyChange></FrequencyChanges></Clock>\n";TMS_Ibrahim-47-3;75.030;1.0.0.561;1;;-670154549;2.0.10.242;2.0.10.242;12/05/2022;05/12/2022 10:55;11:55:39;2.0.10.147;0;;-999999;21;12264;0;1;1157;13421;1;1;1;2;1;2;1;BlockProcFischi;BlockList;1;250;0;;-999999;9;14908;0;1;1157;16065;1;1;1;1;ProcFischi1;ListBlockFischi;9;1;2;0;0;5;Pr3_B;250;1;op;5;2;12;1;9;1;0;TrialProc;688;716;Pr3_B;241;1957;1716;ListFischi1;0;;2;201;73770;14;15;1978;75748;698;1;1978;1;508;203;1280;1;1
TMS_Ibrahim;47;3;"<?xml version=""1.0""?>\n<Clock xmlns:dt=""urn:schemas-microsoft-com:datatypes""><Description dt:dt=""string"">E-Prime Primary Realtime Clock</Description><StartTime><Timestamp dt:dt=""int"">0</Timestamp><DateUtc dt:dt=""string"">2022-12-05T10:55:39Z</DateUtc></StartTime><FrequencyChanges><FrequencyChange><Frequency dt:dt=""r8"">3312880</Frequency><Timestamp dt:dt=""r8"">29393949172</Timestamp><Current dt:dt=""r8"">0</Current><DateUtc dt:dt=""string"">2022-12-05T10:55:39Z</DateUtc></FrequencyChange></FrequencyChanges></Clock>\n";TMS_Ibrahim-47-3;75.030;1.0.0.561;1;;-670154549;2.0.10.242;2.0.10.242;12/05/2022;05/12/2022 10:55;11:55:39;2.0.10.147;0;;-999999;21;12264;0;1;1157;13421;1;1;1;2;1;2;1;BlockProcFischi;BlockList;1;250;0;;-999999;9;14908;0;1;1157;16065;1;1;1;1;ProcFischi1;ListBlockFischi;10;0;2;0;0;5;Pr4_B;;1;op;1;2;13;1;10;1;0;TrialProc;1342;675;Pr4_B;241;1957;1247;ListFischi1;0;;2;203;80888;13;15;1723;82611;459;1;1;1;375;581;-458;1;0
TMS_Ibrahim;47;3;"<?xml version=""1.0""?>\n<Clock xmlns:dt=""urn:schemas-microsoft-com:datatypes""><Description dt:dt=""string"">E-Prime Primary Realtime Clock</Description><StartTime><Timestamp dt:dt=""int"">0</Timestamp><DateUtc dt:dt=""string"">2022-12-05T10:55:39Z</DateUtc></StartTime><FrequencyChanges><FrequencyChange><Frequency dt:dt=""r8"">3312880</Frequency><Timestamp dt:dt=""r8"">29393949172</Timestamp><Current dt:dt=""r8"">0</Current><DateUtc dt:dt=""string"">2022-12-05T10:55:39Z</DateUtc></FrequencyChange></FrequencyChanges></Clock>\n";TMS_Ibrahim-47-3;75.030;1.0.0.561;1;;-670154549;2.0.10.242;2.0.10.242;12/05/2022;05/12/2022 10:55;11:55:39;2.0.10.147;0;;-999999;21;12264;0;1;1157;13421;1;1;1;2;1;2;1;BlockProcFischi;BlockList;1;250;0;;-999999;9;14908;0;1;1157;16065;1;1;1;1;ProcFischi1;ListBlockFischi;11;1;1;0;0;5;Po2_B;200;4;ug;5;2;59;1;11;4;1;TrialProc;772;1579;Po2_B;53;1859;1805;ListFischi1;0;;2;201;87754;11;15;1881;89635;394;1;1881;1;280;334;1487;1;1
TMS_Ibrahim;47;3;"<?xml version=""1.0""?>\n<Clock xmlns:dt=""urn:schemas-microsoft-com:datatypes""><Description dt:dt=""string"">E-Prime Primary Realtime Clock</Description><StartTime><Timestamp dt:dt=""int"">0</Timestamp><DateUtc dt:dt=""string"">2022-12-05T10:55:39Z</DateUtc></StartTime><FrequencyChanges><FrequencyChange><Frequency dt:dt=""r8"">3312880</Frequency><Timestamp dt:dt=""r8"">29393949172</Timestamp><Current dt:dt=""r8"">0</Current><DateUtc dt:dt=""string"">2022-12-05T10:55:39Z</DateUtc></FrequencyChange></FrequencyChanges></Clock>\n";TMS_Ibrahim-47-3;75.030;1.0.0.561;1;;-670154549;2.0.10.242;2.0.10.242;12/05/2022;05/12/2022 10:55;11:55:39;2.0.10.147;0;;-999999;21;12264;0;1;1157;13421;1;1;1;2;1;2;1;BlockProcFischi;BlockList;1;250;0;;-999999;9;14908;0;1;1157;16065;1;1;1;1;ProcFischi1;ListBlockFischi;12;0;1;0;0;5;Po8_B;;4;ug;1;2;58;1;12;4;1;TrialProc;1329;1244;Po8_B;298;1875;1577;ListFischi1;0;;2;203;94847;9;15;1908;96755;324;1;1;1;270;411;-323;1;0
TMS_Ibrahim;47;3;"<?xml version=""1.0""?>\n<Clock xmlns:dt=""urn:schemas-microsoft-com:datatypes""><Description dt:dt=""string"">E-Prime Primary Realtime Clock</Description><StartTime><Timestamp dt:dt=""int"">0</Timestamp><DateUtc dt:dt=""string"">2022-12-05T10:55:39Z</DateUtc></StartTime><FrequencyChanges><FrequencyChange><Frequency dt:dt=""r8"">3312880</Frequency><Timestamp dt:dt=""r8"">29393949172</Timestamp><Current dt:dt=""r8"">0</Current><DateUtc dt:dt=""string"">2022-12-05T10:55:39Z</DateUtc></FrequencyChange></FrequencyChanges></Clock>\n";TMS_Ibrahim-47-3;75.030;1.0.0.561;1;;-670154549;2.0.10.242;2.0.10.242;12/05/2022;05/12/2022 10:55;11:55:39;2.0.10.147;0;;-999999;21;12264;0;1;1157;13421;1;1;1;2;1;2;1;BlockProcFischi;BlockList;1;250;0;;-999999;9;14908;0;1;1157;16065;1;1;1;1;ProcFischi1;ListBlockFischi;13;1;1;0;0;5;Po4_B;175;4;ug;5;2;51;1;13;4;1;TrialProc;700;1345;Po4_B;9;1728;1718;ListFischi1;0;;2;201;102117;16;15;1758;103875;238;1;1758;1;1360;286;1520;1;1
TMS_Ibrahim;47;3;"<?xml version=""1.0""?>\n<Clock xmlns:dt=""urn:schemas-microsoft-com:datatypes""><Description dt:dt=""string"">E-Prime Primary Realtime Clock</Description><StartTime><Timestamp dt:dt=""int"">0</Timestamp><DateUtc dt:dt=""string"">2022-12-05T10:55:39Z</DateUtc></StartTime><FrequencyChanges><FrequencyChange><Frequency dt:dt=""r8"">3312880</Frequency><Timestamp dt:dt=""r8"">29393949172</Timestamp><Current dt:dt=""r8"">0</Current><DateUtc dt:dt=""string"">2022-12-05T10:55:39Z</DateUtc></FrequencyChange></FrequencyChanges></Clock>\n";TMS_Ibrahim-47-3;75.030;1.0.0.561;1;;-670154549;2.0.10.242;2.0.10.242;12/05/2022;05/12/2022 10:55;11:55:39;2.0.10.147;0;;-999999;21;12264;0;1;1157;13421;1;1;1;2;1;2;1;BlockProcFischi;BlockList;1;250;0;;-999999;9;14908;0;1;1157;16065;1;1;1;1;ProcFischi1;ListBlockFischi;14;1;2;1;0;3;Prmod_B;250;3;ug;3;2;32;1;14;3;1;TrialProc;893;1314;Prmod_B;280;1925;1646;ListFischi1;0;;2;203;109371;13;13;1959;111330;599;1;1959;1;551;316;1360;1;1
TMS_Ibrahim;47;3;"<?xml version=""1.0""?>\n<Clock xmlns:dt=""urn:schemas-microsoft-com:datatypes""><Description dt:dt=""string"">E-Prime Primary Realtime Clock</Description><StartTime><Timestamp dt:dt=""int"">0</Timestamp><DateUtc dt:dt=""string"">2022-12-05T10:55:39Z</DateUtc></StartTime><FrequencyChanges><FrequencyChange><Frequency dt:dt=""r8"">3312880</Frequency><Timestamp dt:dt=""r8"">29393949172</Timestamp><Current dt:dt=""r8"">0</Current><DateUtc dt:dt=""string"">2022-12-05T10:55:39Z</DateUtc></FrequencyChange></FrequencyChanges></Clock>\n";TMS_Ibrahim-47-3;75.030;1.0.0.561;1;;-670154549;2.0.10.242;2.0.10.242;12/05/2022;05/12/2022 10:55;11:55:39;2.0.10.147;0;;-999999;21;12264;0;1;1157;13421;1;1;1;2;1;2;1;BlockProcFischi;BlockList;1;250;0;;-999999;9;14908;0;1;1157;16065;1;1;1;1;ProcFischi1;ListBlockFischi;15;1;1;0;0;3;Po4_B;225;2;op;3;2;40;1;15;2;0;TrialProc;1014;1340;Po4_B;644;2358;1714;ListFischi1;0;;2;201;116263;11;13;2379;118642;635;1;2379;1;1045;336;1744;1;1
TMS_Ibrahim;47;3;"<?xml version=""1.0""?>\n<Clock xmlns:dt=""urn:schemas-microsoft-com:datatypes""><Description dt:dt=""string"">E-Prime Primary Realtime Clock</Description><StartTime><Timestamp dt:dt=""int"">0</Timestamp><DateUtc dt:dt=""string"">2022-12-05T10:55:39Z</DateUtc></StartTime><FrequencyChanges><FrequencyChange><Frequency dt:dt=""r8"">3312880</Frequency><Timestamp dt:dt=""r8"">29393949172</Timestamp><Current dt:dt=""r8"">0</Current><DateUtc dt:dt=""string"">2022-12-05T10:55:39Z</DateUtc></FrequencyChange></FrequencyChanges></Clock>\n";TMS_Ibrahim-47-3;75.030;1.0.0.561;1;;-670154549;2.0.10.242;2.0.10.242;12/05/2022;05/12/2022 10:55;11:55:39;2.0.10.147;0;;-999999;21;12264;0;1;1157;13421;1;1;1;2;1;2;1;BlockProcFischi;BlockList;1;250;0;;-999999;9;14908;0;1;1157;16065;1;1;1;1;ProcFischi1;ListBlockFischi;16;1;2;0;0;5;Pr3_B;250;1;op;5;2;2;1;16;1;0;TrialProc;696;714;Pr3_B;318;2031;1713;ListFischi1;0;;2;203;123378;13;15;2064;125442;400;1;2064;1;552;353;1664;1;1
TMS_Ibrahim;47;3;"<?xml version=""1.0""?>\n<Clock xmlns:dt=""urn:schemas-microsoft-com:datatypes""><Description dt:dt=""string"">E-Prime Primary Realtime Clock</Description><StartTime><Timestamp dt:dt=""int"">0</Timestamp><DateUtc dt:dt=""string"">2022-12-05T10:55:39Z</DateUtc></StartTime><FrequencyChanges><FrequencyChange><Frequency dt:dt=""r8"">3312880</Frequency><Timestamp dt:dt=""r8"">29393949172</Timestamp><Current dt:dt=""r8"">0</Current><DateUtc dt:dt=""string"">2022-12-05T10:55:39Z</DateUtc></FrequencyChange></FrequencyChanges></Clock>\n";TMS_Ibrahim-47-3;75.030;1.0.0.561;1;;-670154549;2.0.10.242;2.0.10.242;12/05/2022;05/12/2022 10:55;11:55:39;2.0.10.147;0;;-999999;21;12264;0;1;1157;13421;1;1;1;2;1;2;1;BlockProcFischi;BlockList;1;250;0;;-999999;9;14908;0;1;1157;16065;1;1;1;1;ProcFischi1;ListBlockFischi;17;1;2;0;1;3;Pr4_B;250;3;ug;3;2;24;1;17;3;1;TrialProc;835;667;Pr4_B;535;1776;1240;ListFischi1;0;;2;201;130370;5;13;1808;132178;496;1;1808;1;757;582;1312;1;1
TMS_Ibrahim;47;3;"<?xml version=""1.0""?>\n<Clock xmlns:dt=""urn:schemas-microsoft-com:datatypes""><Description dt:dt=""string"">E-Prime Primary Realtime Clock</Description><StartTime><Timestamp dt:dt=""int"">0</Timestamp><DateUtc dt:dt=""string"">2022-12-05T10:55:39Z</DateUtc></StartTime><FrequencyChanges><FrequencyChange><Frequency dt:dt=""r8"">3312880</Frequency><Timestamp dt:dt=""r8"">29393949172</Timestamp><Current dt:dt=""r8"">0</Current><DateUtc dt:dt=""string"">2022-12-05T10:55:39Z</DateUtc></FrequencyChange></FrequencyChanges></Clock>\n";TMS_Ibrahim-47-3;75.030;1.0.0.561;1;;-670154549;2.0.10.242;2.0.10.242;12/05/2022;05/12/2022 10:55;11:55:39;2.0.10.147;0;;-999999;21;12264;0;1;1157;13421;1;1;1;2;1;2;1;BlockProcFischi;BlockList;1;250;0;;-999999;9;14908;0;1;1157;16065;1;1;1;1;ProcFischi1;ListBlockFischi;18;1;2;0;1;5;Pr5_B;250;1;op;5;2;4;1;18;1;0;TrialProc;418;680;Pr5_B;648;1928;1280;ListFischi1;0;;2;203;137077;16;15;1948;139025;797;1;1948;1;972;534;1151;1;1
TMS_Ibrahim;47;3;"<?xml version=""1.0""?>\n<Clock xmlns:dt=""urn:schemas-microsoft-com:datatypes""><Description dt:dt=""string"">E-Prime Primary Realtime Clock</Description><StartTime><Timestamp dt:dt=""int"">0</Timestamp><DateUtc dt:dt=""string"">2022-12-05T10:55:39Z</DateUtc></StartTime><FrequencyChanges><FrequencyChange><Frequency dt:dt=""r8"">3312880</Frequency><Timestamp dt:dt=""r8"">29393949172</Timestamp><Current dt:dt=""r8"">0</Current><DateUtc dt:dt=""string"">2022-12-05T10:55:39Z</DateUtc></FrequencyChange></FrequencyChanges></Clock>\n";TMS_Ibrahim-47-3;75.030;1.0.0.561;1;;-670154549;2.0.10.242;2.0.10.242;12/05/2022;05/12/2022 10:55;11:55:39;2.0.10.147;0;;-999999;21;12264;0;1;1157;13421;1;1;1;2;1;2;1;BlockProcFischi;BlockList;1;250;0;;-999999;9;14908;0;1;1157;16065;1;1;1;1;ProcFischi1;ListBlockFischi;19;1;2;0;2;5;Pr4_B;250;1;op;5;2;3;1;19;1;0;TrialProc;825;672;Pr4_B;470;1714;1245;ListFischi1;0;;2;201;143761;9;15;1744;145505;416;1;1744;1;735;451;1328;1;1
TMS_Ibrahim;47;3;"<?xml version=""1.0""?>\n<Clock xmlns:dt=""urn:schemas-microsoft-com:datatypes""><Description dt:dt=""string"">E-Prime Primary Realtime Clock</Description><StartTime><Timestamp dt:dt=""int"">0</Timestamp><DateUtc dt:dt=""string"">2022-12-05T10:55:39Z</DateUtc></StartTime><FrequencyChanges><FrequencyChange><Frequency dt:dt=""r8"">3312880</Frequency><Timestamp dt:dt=""r8"">29393949172</Timestamp><Current dt:dt=""r8"">0</Current><DateUtc dt:dt=""string"">2022-12-05T10:55:39Z</DateUtc></FrequencyChange></FrequencyChanges></Clock>\n";TMS_Ibrahim-47-3;75.030;1.0.0.561;1;;-670154549;2.0.10.242;2.0.10.242;12/05/2022;05/12/2022 10:55;11:55:39;2.0.10.147;0;;-999999;21;12264;0;1;1157;13421;1;1;1;2;1;2;1;BlockProcFischi;BlockList;1;250;0;;-999999;9;14908;0;1;1157;16065;1;1;1;1;ProcFischi1;ListBlockFischi;20;1;1;0;0;5;Po2_B;150;4;ug;5;2;49;1;20;4;1;TrialProc;837;1578;Po2_B;117;1921;1804;ListFischi1;0;;2;203;150651;10;15;1942;152593;390;1;1942;1;403;444;1552;1;1
TMS_Ibrahim;47;3;"<?xml version=""1.0""?>\n<Clock xmlns:dt=""urn:schemas-microsoft-com:datatypes""><Description dt:dt=""string"">E-Prime Primary Realtime Clock</Description><StartTime><Timestamp dt:dt=""int"">0</Timestamp><DateUtc dt:dt=""string"">2022-12-05T10:55:39Z</DateUtc></StartTime><FrequencyChanges><FrequencyChange><Frequency dt:dt=""r8"">3312880</Frequency><Timestamp dt:dt=""r8"">29393949172</Timestamp><Current dt:dt=""r8"">0</Current><DateUtc dt:dt=""string"">2022-12-05T10:55:39Z</DateUtc></FrequencyChange></FrequencyChanges></Clock>\n";TMS_Ibrahim-47-3;75.030;1.0.0.561;1;;-670154549;2.0.10.242;2.0.10.242;12/05/2022;05/12/2022 10:55;11:55:39;2.0.10.147;0;;-999999;21;12264;0;1;1157;13421;1;1;1;2;1;2;1;BlockProcFischi;BlockList;1;250;0;;-999999;9;14908;0;1;1157;16065;1;1;1;1;ProcFischi1;ListBlockFischi;21;0;2;0;0;5;Pr2_B;;1;op;1;2;11;1;21;1;0;TrialProc;1979;717;Pr2_B;117;1921;1252;ListFischi1;0;;2;201;157723;15;15;1846;159569;534;1;1;1;378;290;-533;1;0
TMS_Ibrahim;47;3;"<?xml version=""1.0""?>\n<Clock xmlns:dt=""urn:schemas-microsoft-com:datatypes""><Description dt:dt=""string"">E-Prime Primary Realtime Clock</Description><StartTime><Timestamp dt:dt=""int"">0</Timestamp><DateUtc dt:dt=""string"">2022-12-05T10:55:39Z</DateUtc></StartTime><FrequencyChanges><FrequencyChange><Frequency dt:dt=""r8"">3312880</Frequency><Timestamp dt:dt=""r8"">29393949172</Timestamp><Current dt:dt=""r8"">0</Current><DateUtc dt:dt=""string"">2022-12-05T10:55:39Z</DateUtc></FrequencyChange></FrequencyChanges></Clock>\n";TMS_Ibrahim-47-3;75.030;1.0.0.561;1;;-670154549;2.0.10.242;2.0.10.242;12/05/2022;05/12/2022 10:55;11:55:39;2.0.10.147;0;;-999999;21;12264;0;1;1157;13421;1;1;1;2;1;2;1;BlockProcFischi;BlockList;1;250;0;;-999999;9;14908;0;1;1157;16065;1;1;1;1;ProcFischi1;ListBlockFischi;22;0;2;0;2;3;Pr5_B;;3;ug;1;2;20;1;22;3;1;TrialProc;2474;672;Pr5_B;576;1828;1272;ListFischi1;0;;2;203;164312;10;13;1849;166161;425;1;1;1;487;502;-424;1;0
TMS_Ibrahim;47;3;"<?xml version=""1.0""?>\n<Clock xmlns:dt=""urn:schemas-microsoft-com:datatypes""><Description dt:dt=""string"">E-Prime Primary Realtime Clock</Description><StartTime><Timestamp dt:dt=""int"">0</Timestamp><DateUtc dt:dt=""string"">2022-12-05T10:55:39Z</DateUtc></StartTime><FrequencyChanges><FrequencyChange><Frequency dt:dt=""r8"">3312880</Frequency><Timestamp dt:dt=""r8"">29393949172</Timestamp><Current dt:dt=""r8"">0</Current><DateUtc dt:dt=""string"">2022-12-05T10:55:39Z</DateUtc></FrequencyChange></FrequencyChanges></Clock>\n";TMS_Ibrahim-47-3;75.030;1.0.0.561;1;;-670154549;2.0.10.242;2.0.10.242;12/05/2022;05/12/2022 10:55;11:55:39;2.0.10.147;0;;-999999;21;12264;0;1;1157;13421;1;1;1;2;1;2;1;BlockProcFischi;BlockList;1;250;0;;-999999;9;14908;0;1;1157;16065;1;1;1;1;ProcFischi1;ListBlockFischi;23;1;1;0;0;5;Po5_B;125;4;ug;5;2;52;1;23;4;1;TrialProc;602;978;Po5_B;345;1817;1471;ListFischi1;0;;2;201;171096;10;15;1848;172944;552;1;1848;1;692;560;1296;1;1
TMS_Ibrahim;47;3;"<?xml version=""1.0""?>\n<Clock xmlns:dt=""urn:schemas-microsoft-com:datatypes""><Description dt:dt=""string"">E-Prime Primary Realtime Clock</Description><StartTime><Timestamp dt:dt=""int"">0</Timestamp><DateUtc dt:dt=""string"">2022-12-05T10:55:39Z</DateUtc></StartTime><FrequencyChanges><FrequencyChange><Frequency dt:dt=""r8"">3312880</Frequency><Timestamp dt:dt=""r8"">29393949172</Timestamp><Current dt:dt=""r8"">0</Current><DateUtc dt:dt=""string"">2022-12-05T10:55:39Z</DateUtc></FrequencyChange></FrequencyChanges></Clock>\n";TMS_Ibrahim-47-3;75.030;1.0.0.561;1;;-670154549;2.0.10.242;2.0.10.242;12/05/2022;05/12/2022 10:55;11:55:39;2.0.10.147;0;;-999999;21;12264;0;1;1157;13421;1;1;1;2;1;2;1;BlockProcFischi;BlockList;1;250;0;;-999999;9;14908;0;1;1157;16065;1;1;1;1;ProcFischi1;ListBlockFischi;24;1;1;0;1;3;Po3_B;225;2;op;3;2;39;1;24;2;0;TrialProc;694;1312;Po3_B;35;1543;1579;ListFischi1;0;;2;203;177921;9;13;1567;179488;367;1;1567;1;281;445;1200;1;1
TMS_Ibrahim;47;3;"<?xml version=""1.0""?>\n<Clock xmlns:dt=""urn:schemas-microsoft-com:datatypes""><Description dt:dt=""string"">E-Prime Primary Realtime Clock</Description><StartTime><Timestamp dt:dt=""int"">0</Timestamp><DateUtc dt:dt=""string"">2022-12-05T10:55:39Z</DateUtc></StartTime><FrequencyChanges><FrequencyChange><Frequency dt:dt=""r8"">3312880</Frequency><Timestamp dt:dt=""r8"">29393949172</Timestamp><Current dt:dt=""r8"">0</Current><DateUtc dt:dt=""string"">2022-12-05T10:55:39Z</DateUtc></FrequencyChange></FrequencyChanges></Clock>\n";TMS_Ibrahim-47-3;75.030;1.0.0.561;1;;-670154549;2.0.10.242;2.0.10.242;12/05/2022;05/12/2022 10:55;11:55:39;2.0.10.147;0;;-999999;21;12264;0;1;1157;13421;1;1;1;2;1;2;1;BlockProcFischi;BlockList;1;250;0;;-999999;9;14908;0;1;1157;16065;1;1;1;1;ProcFischi1;ListBlockFischi;25;1;1;0;1;5;Po5_B;125;4;ug;5;2;57;1;25;4;1;TrialProc;670;980;Po5_B;319;1792;1474;ListFischi1;0;;2;201;185169;11;15;1823;186992;623;1;1823;1;424;291;1200;1;1
TMS_Ibrahim;47;3;"<?xml version=""1.0""?>\n<Clock xmlns:dt=""urn:schemas-microsoft-com:datatypes""><Description dt:dt=""string"">E-Prime Primary Realtime Clock</Description><StartTime><Timestamp dt:dt=""int"">0</Timestamp><DateUtc dt:dt=""string"">2022-12-05T10:55:39Z</DateUtc></StartTime><FrequencyChanges><FrequencyChange><Frequency dt:dt=""r8"">3312880</Frequency><Timestamp dt:dt=""r8"">29393949172</Timestamp><Current dt:dt=""r8"">0</Current><DateUtc dt:dt=""string"">2022-12-05T10:55:39Z</DateUtc></FrequencyChange></FrequencyChanges></Clock>\n";TMS_Ibrahim-47-3;75.030;1.0.0.561;1;;-670154549;2.0.10.242;2.0.10.242;12/05/2022;05/12/2022 10:55;11:55:39;2.0.10.147;0;;-999999;21;12264;0;1;1157;13421;1;1;1;2;1;2;1;BlockProcFischi;BlockList;1;250;0;;-999999;9;14908;0;1;1157;16065;1;1;1;1;ProcFischi1;ListBlockFischi;26;1;1;0;0;3;Po4_B;200;2;op;3;2;35;1;26;2;0;TrialProc;724;1340;Po4_B;125;1837;1712;ListFischi1;0;;2;203;191980;11;13;1860;193840;276;1;1860;1;153;420;1584;1;1
TMS_Ibrahim;47;3;"<?xml version=""1.0""?>\n<Clock xmlns:dt=""urn:schemas-microsoft-com:datatypes""><Description dt:dt=""string"">E-Prime Primary Realtime Clock</Description><StartTime><Timestamp dt:dt=""int"">0</Timestamp><DateUtc dt:dt=""string"">2022-12-05T10:55:39Z</DateUtc></StartTime><FrequencyChanges><FrequencyChange><Frequency dt:dt=""r8"">3312880</Frequency><Timestamp dt:dt=""r8"">29393949172</Timestamp><Current dt:dt=""r8"">0</Current><DateUtc dt:dt=""string"">2022-12-05T10:55:39Z</DateUtc></FrequencyChange></FrequencyChanges></Clock>\n";TMS_Ibrahim-47-3;75.030;1.0.0.561;1;;-670154549;2.0.10.242;2.0.10.242;12/05/2022;05/12/2022 10:55;11:55:39;2.0.10.147;0;;-999999;21;12264;0;1;1157;13421;1;1;1;2;1;2;1;BlockProcFischi;BlockList;1;250;0;;-999999;9;14908;0;1;1157;16065;1;1;1;1;ProcFischi1;ListBlockFischi;27;1;2;0;0;5;Pr8_B;275;1;op;5;2;5;1;27;1;0;TrialProc;656;710;Pr8_B;220;1956;1736;ListFischi1;0;;2;201;199181;7;15;1986;201167;274;1;1986;1;415;399;1712;1;1
TMS_Ibrahim;47;3;"<?xml version=""1.0""?>\n<Clock xmlns:dt=""urn:schemas-microsoft-com:datatypes""><Description dt:dt=""string"">E-Prime Primary Realtime Clock</Description><StartTime><Timestamp dt:dt=""int"">0</Timestamp><DateUtc dt:dt=""string"">2022-12-05T10:55:39Z</DateUtc></StartTime><FrequencyChanges><FrequencyChange><Frequency dt:dt=""r8"">3312880</Frequency><Timestamp dt:dt=""r8"">29393949172</Timestamp><Current dt:dt=""r8"">0</Current><DateUtc dt:dt=""string"">2022-12-05T10:55:39Z</DateUtc></FrequencyChange></FrequencyChanges></Clock>\n";TMS_Ibrahim-47-3;75.030;1.0.0.561;1;;-670154549;2.0.10.242;2.0.10.242;12/05/2022;05/12/2022 10:55;11:55:39;2.0.10.147;0;;-999999;21;12264;0;1;1157;13421;1;1;1;2;1;2;1;BlockProcFischi;BlockList;1;250;0;;-999999;9;14908;0;1;1157;16065;1;1;1;1;ProcFischi1;ListBlockFischi;28;0;1;1;2;5;Pomod_B;;4;ug;1;2;64;1;28;4;1;TrialProc;1453;1314;Pomod_B;220;1956;1674;ListFischi1;0;;2;203;206294;12;15;2553;208847;393;1;1;1;249;403;-392;1;0
TMS_Ibrahim;47;3;"<?xml version=""1.0""?>\n<Clock xmlns:dt=""urn:schemas-microsoft-com:datatypes""><Description dt:dt=""string"">E-Prime Primary Realtime Clock</Description><StartTime><Timestamp dt:dt=""int"">0</Timestamp><DateUtc dt:dt=""string"">2022-12-05T10:55:39Z</DateUtc></StartTime><FrequencyChanges><FrequencyChange><Frequency dt:dt=""r8"">3312880</Frequency><Timestamp dt:dt=""r8"">29393949172</Timestamp><Current dt:dt=""r8"">0</Current><DateUtc dt:dt=""string"">2022-12-05T10:55:39Z</DateUtc></FrequencyChange></FrequencyChanges></Clock>\n";TMS_Ibrahim-47-3;75.030;1.0.0.561;1;;-670154549;2.0.10.242;2.0.10.242;12/05/2022;05/12/2022 10:55;11:55:39;2.0.10.147;0;;-999999;21;12264;0;1;1157;13421;1;1;1;2;1;2;1;BlockProcFischi;BlockList;1;250;0;;-999999;9;14908;0;1;1157;16065;1;1;1;1;ProcFischi1;ListBlockFischi;29;1;2;0;2;3;Pr8_B;250;3;ug;3;2;21;1;29;3;1;TrialProc;559;712;Pr8_B;403;2142;1739;ListFischi1;0;;2;201;212812;11;13;2163;214975;803;1;2163;1;961;457;1360;1;1
TMS_Ibrahim;47;3;"<?xml version=""1.0""?>\n<Clock xmlns:dt=""urn:schemas-microsoft-com:datatypes""><Description dt:dt=""string"">E-Prime Primary Realtime Clock</Description><StartTime><Timestamp dt:dt=""int"">0</Timestamp><DateUtc dt:dt=""string"">2022-12-05T10:55:39Z</DateUtc></StartTime><FrequencyChanges><FrequencyChange><Frequency dt:dt=""r8"">3312880</Frequency><Timestamp dt:dt=""r8"">29393949172</Timestamp><Current dt:dt=""r8"">0</Current><DateUtc dt:dt=""string"">2022-12-05T10:55:39Z</DateUtc></FrequencyChange></FrequencyChanges></Clock>\n";TMS_Ibrahim-47-3;75.030;1.0.0.561;1;;-670154549;2.0.10.242;2.0.10.242;12/05/2022;05/12/2022 10:55;11:55:39;2.0.10.147;0;;-999999;21;12264;0;1;1157;13421;1;1;1;2;1;2;1;BlockProcFischi;BlockList;1;250;0;;-999999;9;14908;0;1;1157;16065;1;1;1;1;ProcFischi1;ListBlockFischi;30;1;1;0;2;5;Po3_B;125;4;ug;5;2;60;1;30;4;1;TrialProc;283;1314;Po3_B;395;1975;1580;ListFischi1;0;;2;203;219675;12;155;3620;223295;436;1;2004;1;1771;455;1568;1;1
TMS_Ibrahim;47;3;"<?xml version=""1.0""?>\n<Clock xmlns:dt=""urn:schemas-microsoft-com:datatypes""><Description dt:dt=""string"">E-Prime Primary Realtime Clock</Description><StartTime><Timestamp dt:dt=""int"">0</Timestamp><DateUtc dt:dt=""string"">2022-12-05T10:55:39Z</DateUtc></StartTime><FrequencyChanges><FrequencyChange><Frequency dt:dt=""r8"">3312880</Frequency><Timestamp dt:dt=""r8"">29393949172</Timestamp><Current dt:dt=""r8"">0</Current><DateUtc dt:dt=""string"">2022-12-05T10:55:39Z</DateUtc></FrequencyChange></FrequencyChanges></Clock>\n";TMS_Ibrahim-47-3;75.030;1.0.0.561;1;;-670154549;2.0.10.242;2.0.10.242;12/05/2022;05/12/2022 10:55;11:55:39;2.0.10.147;0;;-999999;21;12264;0;1;1157;13421;1;1;1;2;1;2;1;BlockProcFischi;BlockList;1;250;0;;-999999;9;14908;0;1;1157;16065;1;1;1;1;ProcFischi1;ListBlockFischi;31;1;2;0;0;3;Pr4_B;275;3;ug;3;2;19;1;31;3;1;TrialProc;918;5765;Pr4_B;637;6000;6000;ListFischi1;0;;2;201;224767;11;13;1903;226670;703;1;1903;1;2115;584;1200;1;1
TMS_Ibrahim;47;3;"<?xml version=""1.0""?>\n<Clock xmlns:dt=""urn:schemas-microsoft-com:datatypes""><Description dt:dt=""string"">E-Prime Primary Realtime Clock</Description><StartTime><Timestamp dt:dt=""int"">0</Timestamp><DateUtc dt:dt=""string"">2022-12-05T10:55:39Z</DateUtc></StartTime><FrequencyChanges><FrequencyChange><Frequency dt:dt=""r8"">3312880</Frequency><Timestamp dt:dt=""r8"">29393949172</Timestamp><Current dt:dt=""r8"">0</Current><DateUtc dt:dt=""string"">2022-12-05T10:55:39Z</DateUtc></FrequencyChange></FrequencyChanges></Clock>\n";TMS_Ibrahim-47-3;75.030;1.0.0.561;1;;-670154549;2.0.10.242;2.0.10.242;12/05/2022;05/12/2022 10:55;11:55:39;2.0.10.147;0;;-999999;21;12264;0;1;1157;13421;1;1;1;2;1;2;1;BlockProcFischi;BlockList;1;250;0;;-999999;9;14908;0;1;1157;16065;1;1;1;1;ProcFischi1;ListBlockFischi;32;1;2;0;1;3;Pr2_B;275;3;ug;3;2;17;1;32;3;1;TrialProc;3599;708;Pr2_B;522;1762;1241;ListFischi1;0;;2;203;231690;6;13;1796;233486;516;1;1796;1;890;278;1280;1;1
TMS_Ibrahim;47;3;"<?xml version=""1.0""?>\n<Clock xmlns:dt=""urn:schemas-microsoft-com:datatypes""><Description dt:dt=""string"">E-Prime Primary Realtime Clock</Description><StartTime><Timestamp dt:dt=""int"">0</Timestamp><DateUtc dt:dt=""string"">2022-12-05T10:55:39Z</DateUtc></StartTime><FrequencyChanges><FrequencyChange><Frequency dt:dt=""r8"">3312880</Frequency><Timestamp dt:dt=""r8"">29393949172</Timestamp><Current dt:dt=""r8"">0</Current><DateUtc dt:dt=""string"">2022-12-05T10:55:39Z</DateUtc></FrequencyChange></FrequencyChanges></Clock>\n";TMS_Ibrahim-47-3;75.030;1.0.0.561;1;;-670154549;2.0.10.242;2.0.10.242;12/05/2022;05/12/2022 10:55;11:55:39;2.0.10.147;0;;-999999;21;12264;0;1;1157;13421;1;1;1;2;1;2;1;BlockProcFischi;BlockList;1;250;0;;-999999;9;14908;0;1;1157;16065;1;1;1;1;ProcFischi1;ListBlockFischi;33;0;2;0;2;3;Pr2_B;;3;ug;1;2;22;1;33;3;1;TrialProc;2409;713;Pr2_B;522;1762;1246;ListFischi1;0;;1;201;238788;11;133;1882;240670;330;1;1;1;110;209;-329;1;0
TMS_Ibrahim;47;3;"<?xml version=""1.0""?>\n<Clock xmlns:dt=""urn:schemas-microsoft-com:datatypes""><Description dt:dt=""string"">E-Prime Primary Realtime Clock</Description><StartTime><Timestamp dt:dt=""int"">0</Timestamp><DateUtc dt:dt=""string"">2022-12-05T10:55:39Z</DateUtc></StartTime><FrequencyChanges><FrequencyChange><Frequency dt:dt=""r8"">3312880</Frequency><Timestamp dt:dt=""r8"">29393949172</Timestamp><Current dt:dt=""r8"">0</Current><DateUtc dt:dt=""string"">2022-12-05T10:55:39Z</DateUtc></FrequencyChange></FrequencyChanges></Clock>\n";TMS_Ibrahim-47-3;75.030;1.0.0.561;1;;-670154549;2.0.10.242;2.0.10.242;12/05/2022;05/12/2022 10:55;11:55:39;2.0.10.147;0;;-999999;21;12264;0;1;1157;13421;1;1;1;2;1;2;1;BlockProcFischi;BlockList;1;250;0;;-999999;9;14908;0;1;1157;16065;1;1;1;1;ProcFischi1;ListBlockFischi;34;0;2;0;0;5;Pr4_B;;1;op;1;2;8;1;34;1;0;TrialProc;1961;675;Pr4_B;420;1667;1248;ListFischi1;0;;2;203;245492;11;15;1690;247182;218;1;1;1;395;492;-217;1;0
TMS_Ibrahim;47;3;"<?xml version=""1.0""?>\n<Clock xmlns:dt=""urn:schemas-microsoft-com:datatypes""><Description dt:dt=""string"">E-Prime Primary Realtime Clock</Description><StartTime><Timestamp dt:dt=""int"">0</Timestamp><DateUtc dt:dt=""string"">2022-12-05T10:55:39Z</DateUtc></StartTime><FrequencyChanges><FrequencyChange><Frequency dt:dt=""r8"">3312880</Frequency><Timestamp dt:dt=""r8"">29393949172</Timestamp><Current dt:dt=""r8"">0</Current><DateUtc dt:dt=""string"">2022-12-05T10:55:39Z</DateUtc></FrequencyChange></FrequencyChanges></Clock>\n";TMS_Ibrahim-47-3;75.030;1.0.0.561;1;;-670154549;2.0.10.242;2.0.10.242;12/05/2022;05/12/2022 10:55;11:55:39;2.0.10.147;0;;-999999;21;12264;0;1;1157;13421;1;1;1;2;1;2;1;BlockProcFischi;BlockList;1;250;0;;-999999;9;14908;0;1;1157;16065;1;1;1;1;ProcFischi1;ListBlockFischi;35;1;1;0;0;3;Po5_B;175;2;op;3;2;41;1;35;2;0;TrialProc;819;995;Po5_B;217;1746;1530;ListFischi1;0;;4;210;269918;16;133;2111;272029;671;1;1775;1;316;477;1104;1;1
TMS_Ibrahim;47;3;"<?xml version=""1.0""?>\n<Clock xmlns:dt=""urn:schemas-microsoft-com:datatypes""><Description dt:dt=""string"">E-Prime Primary Realtime Clock</Description><StartTime><Timestamp dt:dt=""int"">0</Timestamp><DateUtc dt:dt=""string"">2022-12-05T10:55:39Z</DateUtc></StartTime><FrequencyChanges><FrequencyChange><Frequency dt:dt=""r8"">3312880</Frequency><Timestamp dt:dt=""r8"">29393949172</Timestamp><Current dt:dt=""r8"">0</Current><DateUtc dt:dt=""string"">2022-12-05T10:55:39Z</DateUtc></FrequencyChange></FrequencyChanges></Clock>\n";TMS_Ibrahim-47-3;75.030;1.0.0.561;1;;-670154549;2.0.10.242;2.0.10.242;12/05/2022;05/12/2022 10:55;11:55:39;2.0.10.147;0;;-999999;21;12264;0;1;1157;13421;1;1;1;2;1;2;1;BlockProcFischi;BlockList;1;250;0;;-999999;9;14908;0;1;1157;16065;1;1;1;1;ProcFischi1;ListBlockFischi;36;0;1;0;1;3;Po5_B;;2;op;1;2;46;1;36;2;0;TrialProc;891;976;Po5_B;217;1746;1469;ListFischi1;0;;2;201;276631;7;13;1846;278477;310;1;1;1;256;259;-309;1;0
