ExperimentName;Subject;Session;Clock.Information;DataFile.Basename;Display.RefreshRate;ExperimentVersion;Group;Name;RandomSeed;RuntimeVersion;RuntimeVersionExpected;SessionDate;SessionStartDateTimeUtc;SessionTime;StudioVersion;SyncEprimeKinB1.ACC;SyncEprimeKinB1.CRESP;SyncEprimeKinB1.DurationError;SyncEprimeKinB1.OnsetDelay;SyncEprimeKinB1.OnsetTime;SyncEprimeKinB1.OnsetToOnsetTime;SyncEprimeKinB1.RESP;SyncEprimeKinB1.RT;SyncEprimeKinB1.RTTime;Block;BlockINT_0Fischi_1Suoni;BlockList;BlockList.Cycle;BlockList.Sample;ContatoreSuoni;NumSuono;Procedure[Block];Running[Block];Suonilist;SuonoFinSoglia;SyncEprimeKinFischi1.ACC;SyncEprimeKinFischi1.CRESP;SyncEprimeKinFischi1.DurationError;SyncEprimeKinFischi1.OnsetDelay;SyncEprimeKinFischi1.OnsetTime;SyncEprimeKinFischi1.OnsetToOnsetTime;SyncEprimeKinFischi1.RESP;SyncEprimeKinFischi1.RT;SyncEprimeKinFischi1.RTTime;Trial;ListBlockFischi;ListBlockFischi.Cycle;ListBlockFischi.Sample;Procedure[Trial];Running[Trial];SubTrial;AccSogg1;Avatar_Giu1_Su2;CatchTrial_CORR;ContatoreFinestraSoglia;CorrectResponse;File_Name;FinestraSoglia;IdcondEEG;Istruzione;KeySoggetto1;KeySoggetto2;ListFischi1;ListFischi1.Cycle;ListFischi1.Sample;NumeroSuono;OP_UG;Procedure[SubTrial];Resoconto.RT;RTChange;RTimage;RTNetto;RTSubj;RTTouch;Running[SubTrial];StartGo.ACC;StartGo.CRESP;StartGo.DurationError;StartGo.OnsetDelay;StartGo.OnsetTime;StartGo.OnsetToOnsetTime;StartGo.RESP;StartGo.RT;StartGo.RTTime;StartSoggetto1;StartSoggetto2;StopSoggetto1;StopSoggetto2;StopTrial.RT;tempo;TMSoggetto1;ValiditaTrial;Vincitore
TMS_Ibrahim;48;2;"<?xml version=""1.0""?>\n<Clock xmlns:dt=""urn:schemas-microsoft-com:datatypes""><Description dt:dt=""string"">E-Prime Primary Realtime Clock</Description><StartTime><Timestamp dt:dt=""int"">0</Timestamp><DateUtc dt:dt=""string"">2023-03-21T10:46:25Z</DateUtc></StartTime><FrequencyChanges><FrequencyChange><Frequency dt:dt=""r8"">3312841</Frequency><Timestamp dt:dt=""r8"">7576160665</Timestamp><Current dt:dt=""r8"">0</Current><DateUtc dt:dt=""string"">2023-03-21T10:46:25Z</DateUtc></FrequencyChange></FrequencyChanges></Clock>\n";TMS_Ibrahim-48-2;75.029;1.0.0.561;1;;-1013119600;2.0.10.242;2.0.10.242;03-21-2023;21/03/2023 10:46;11:46:25;2.0.10.147;0;;-999999;15;12652;0;1;1141;13793;1;1;1;2;1;2;1;BlockProcFischi;BlockList;1;50;0;;-999999;13;14459;0;1;339;14798;1;1;1;1;ProcFischi1;ListBlockFischi;1;0;1;1;0;3;Pomod_B;;2;op;5;2;48;1;1;2;0;TrialProc;692;1322;Pomod_B;138;1543;1681;ListFischi1;0;;3;203;16382;23;15;1576;17958;440;1;1576;1;464;509;1136;1;0
TMS_Ibrahim;48;2;"<?xml version=""1.0""?>\n<Clock xmlns:dt=""urn:schemas-microsoft-com:datatypes""><Description dt:dt=""string"">E-Prime Primary Realtime Clock</Description><StartTime><Timestamp dt:dt=""int"">0</Timestamp><DateUtc dt:dt=""string"">2023-03-21T10:46:25Z</DateUtc></StartTime><FrequencyChanges><FrequencyChange><Frequency dt:dt=""r8"">3312841</Frequency><Timestamp dt:dt=""r8"">7576160665</Timestamp><Current dt:dt=""r8"">0</Current><DateUtc dt:dt=""string"">2023-03-21T10:46:25Z</DateUtc></FrequencyChange></FrequencyChanges></Clock>\n";TMS_Ibrahim-48-2;75.029;1.0.0.561;1;;-1013119600;2.0.10.242;2.0.10.242;03-21-2023;21/03/2023 10:46;11:46:25;2.0.10.147;0;;-999999;15;12652;0;1;1141;13793;1;1;1;2;1;2;1;BlockProcFischi;BlockList;1;50;0;;-999999;13;14459;0;1;339;14798;1;1;1;1;ProcFischi1;ListBlockFischi;2;1;1;0;0;3;Po5_B;250;2;op;3;2;46;1;2;2;0;TrialProc;557;978;Po5_B;43;1428;1471;ListFischi1;0;;2;205;24684;11;133;3018;27702;490;1;1450;1;1034;520;960;1;1
TMS_Ibrahim;48;2;"<?xml version=""1.0""?>\n<Clock xmlns:dt=""urn:schemas-microsoft-com:datatypes""><Description dt:dt=""string"">E-Prime Primary Realtime Clock</Description><StartTime><Timestamp dt:dt=""int"">0</Timestamp><DateUtc dt:dt=""string"">2023-03-21T10:46:25Z</DateUtc></StartTime><FrequencyChanges><FrequencyChange><Frequency dt:dt=""r8"">3312841</Frequency><Timestamp dt:dt=""r8"">7576160665</Timestamp><Current dt:dt=""r8"">0</Current><DateUtc dt:dt=""string"">2023-03-21T10:46:25Z</DateUtc></FrequencyChange></FrequencyChanges></Clock>\n";TMS_Ibrahim-48-2;75.029;1.0.0.561;1;;-1013119600;2.0.10.242;2.0.10.242;03-21-2023;21/03/2023 10:46;11:46:25;2.0.10.147;0;;-999999;15;12652;0;1;1141;13793;1;1;1;2;1;2;1;BlockProcFischi;BlockList;1;50;0;;-999999;13;14459;0;1;339;14798;1;1;1;1;ProcFischi1;ListBlockFischi;3;1;1;0;0;5;Po8_B;250;4;ug;5;2;58;1;3;4;1;TrialProc;700;1240;Po8_B;43;1529;1572;ListFischi1;0;;2;201;30940;6;15;1562;32502;442;1;1562;1;526;444;1120;1;1
TMS_Ibrahim;48;2;"<?xml version=""1.0""?>\n<Clock xmlns:dt=""urn:schemas-microsoft-com:datatypes""><Description dt:dt=""string"">E-Prime Primary Realtime Clock</Description><StartTime><Timestamp dt:dt=""int"">0</Timestamp><DateUtc dt:dt=""string"">2023-03-21T10:46:25Z</DateUtc></StartTime><FrequencyChanges><FrequencyChange><Frequency dt:dt=""r8"">3312841</Frequency><Timestamp dt:dt=""r8"">7576160665</Timestamp><Current dt:dt=""r8"">0</Current><DateUtc dt:dt=""string"">2023-03-21T10:46:25Z</DateUtc></FrequencyChange></FrequencyChanges></Clock>\n";TMS_Ibrahim-48-2;75.029;1.0.0.561;1;;-1013119600;2.0.10.242;2.0.10.242;03-21-2023;21/03/2023 10:46;11:46:25;2.0.10.147;0;;-999999;15;12652;0;1;1141;13793;1;1;1;2;1;2;1;BlockProcFischi;BlockList;1;50;0;;-999999;13;14459;0;1;339;14798;1;1;1;1;ProcFischi1;ListBlockFischi;4;1;2;0;0;5;Pr5_B;250;1;op;5;2;4;1;4;1;0;TrialProc;556;671;Pr5_B;169;1439;1270;ListFischi1;0;;2;203;38558;11;15;1464;40022;408;1;1464;1;975;407;1056;1;1
TMS_Ibrahim;48;2;"<?xml version=""1.0""?>\n<Clock xmlns:dt=""urn:schemas-microsoft-com:datatypes""><Description dt:dt=""string"">E-Prime Primary Realtime Clock</Description><StartTime><Timestamp dt:dt=""int"">0</Timestamp><DateUtc dt:dt=""string"">2023-03-21T10:46:25Z</DateUtc></StartTime><FrequencyChanges><FrequencyChange><Frequency dt:dt=""r8"">3312841</Frequency><Timestamp dt:dt=""r8"">7576160665</Timestamp><Current dt:dt=""r8"">0</Current><DateUtc dt:dt=""string"">2023-03-21T10:46:25Z</DateUtc></FrequencyChange></FrequencyChanges></Clock>\n";TMS_Ibrahim-48-2;75.029;1.0.0.561;1;;-1013119600;2.0.10.242;2.0.10.242;03-21-2023;21/03/2023 10:46;11:46:25;2.0.10.147;0;;-999999;15;12652;0;1;1141;13793;1;1;1;2;1;2;1;BlockProcFischi;BlockList;1;50;0;;-999999;13;14459;0;1;339;14798;1;1;1;1;ProcFischi1;ListBlockFischi;5;1;2;0;0;5;Pr8_B;225;1;op;5;2;10;1;5;1;0;TrialProc;743;708;Pr8_B;55;1789;1733;ListFischi1;0;;2;201;45574;6;155;2000;47574;480;1;1824;1;1080;211;1344;1;1
TMS_Ibrahim;48;2;"<?xml version=""1.0""?>\n<Clock xmlns:dt=""urn:schemas-microsoft-com:datatypes""><Description dt:dt=""string"">E-Prime Primary Realtime Clock</Description><StartTime><Timestamp dt:dt=""int"">0</Timestamp><DateUtc dt:dt=""string"">2023-03-21T10:46:25Z</DateUtc></StartTime><FrequencyChanges><FrequencyChange><Frequency dt:dt=""r8"">3312841</Frequency><Timestamp dt:dt=""r8"">7576160665</Timestamp><Current dt:dt=""r8"">0</Current><DateUtc dt:dt=""string"">2023-03-21T10:46:25Z</DateUtc></FrequencyChange></FrequencyChanges></Clock>\n";TMS_Ibrahim-48-2;75.029;1.0.0.561;1;;-1013119600;2.0.10.242;2.0.10.242;03-21-2023;21/03/2023 10:46;11:46:25;2.0.10.147;0;;-999999;15;12652;0;1;1141;13793;1;1;1;2;1;2;1;BlockProcFischi;BlockList;1;50;0;;-999999;13;14459;0;1;339;14798;1;1;1;1;ProcFischi1;ListBlockFischi;6;1;1;0;0;3;Po3_B;225;2;op;3;2;34;1;6;2;0;TrialProc;557;1315;Po3_B;106;1477;1583;ListFischi1;0;;2;203;52668;16;13;1498;54166;570;1;1498;1;774;375;928;1;1
TMS_Ibrahim;48;2;"<?xml version=""1.0""?>\n<Clock xmlns:dt=""urn:schemas-microsoft-com:datatypes""><Description dt:dt=""string"">E-Prime Primary Realtime Clock</Description><StartTime><Timestamp dt:dt=""int"">0</Timestamp><DateUtc dt:dt=""string"">2023-03-21T10:46:25Z</DateUtc></StartTime><FrequencyChanges><FrequencyChange><Frequency dt:dt=""r8"">3312841</Frequency><Timestamp dt:dt=""r8"">7576160665</Timestamp><Current dt:dt=""r8"">0</Current><DateUtc dt:dt=""string"">2023-03-21T10:46:25Z</DateUtc></FrequencyChange></FrequencyChanges></Clock>\n";TMS_Ibrahim-48-2;75.029;1.0.0.561;1;;-1013119600;2.0.10.242;2.0.10.242;03-21-2023;21/03/2023 10:46;11:46:25;2.0.10.147;0;;-999999;15;12652;0;1;1141;13793;1;1;1;2;1;2;1;BlockProcFischi;BlockList;1;50;0;;-999999;13;14459;0;1;339;14798;1;1;1;1;ProcFischi1;ListBlockFischi;7;1;1;0;0;5;Po8_B;225;4;ug;5;2;53;1;7;4;1;TrialProc;642;1243;Po8_B;18;1558;1577;ListFischi1;0;;2;201;60151;10;15;1582;61733;431;1;1582;1;392;204;1151;1;1
TMS_Ibrahim;48;2;"<?xml version=""1.0""?>\n<Clock xmlns:dt=""urn:schemas-microsoft-com:datatypes""><Description dt:dt=""string"">E-Prime Primary Realtime Clock</Description><StartTime><Timestamp dt:dt=""int"">0</Timestamp><DateUtc dt:dt=""string"">2023-03-21T10:46:25Z</DateUtc></StartTime><FrequencyChanges><FrequencyChange><Frequency dt:dt=""r8"">3312841</Frequency><Timestamp dt:dt=""r8"">7576160665</Timestamp><Current dt:dt=""r8"">0</Current><DateUtc dt:dt=""string"">2023-03-21T10:46:25Z</DateUtc></FrequencyChange></FrequencyChanges></Clock>\n";TMS_Ibrahim-48-2;75.029;1.0.0.561;1;;-1013119600;2.0.10.242;2.0.10.242;03-21-2023;21/03/2023 10:46;11:46:25;2.0.10.147;0;;-999999;15;12652;0;1;1141;13793;1;1;1;2;1;2;1;BlockProcFischi;BlockList;1;50;0;;-999999;13;14459;0;1;339;14798;1;1;1;1;ProcFischi1;ListBlockFischi;8;1;2;0;0;5;Pr5_B;200;1;op;5;2;14;1;8;1;0;TrialProc;578;674;Pr5_B;141;1415;1274;ListFischi1;0;;2;203;67278;14;15;1447;68725;471;1;1447;1;460;279;976;1;1
TMS_Ibrahim;48;2;"<?xml version=""1.0""?>\n<Clock xmlns:dt=""urn:schemas-microsoft-com:datatypes""><Description dt:dt=""string"">E-Prime Primary Realtime Clock</Description><StartTime><Timestamp dt:dt=""int"">0</Timestamp><DateUtc dt:dt=""string"">2023-03-21T10:46:25Z</DateUtc></StartTime><FrequencyChanges><FrequencyChange><Frequency dt:dt=""r8"">3312841</Frequency><Timestamp dt:dt=""r8"">7576160665</Timestamp><Current dt:dt=""r8"">0</Current><DateUtc dt:dt=""string"">2023-03-21T10:46:25Z</DateUtc></FrequencyChange></FrequencyChanges></Clock>\n";TMS_Ibrahim-48-2;75.029;1.0.0.561;1;;-1013119600;2.0.10.242;2.0.10.242;03-21-2023;21/03/2023 10:46;11:46:25;2.0.10.147;0;;-999999;15;12652;0;1;1141;13793;1;1;1;2;1;2;1;BlockProcFischi;BlockList;1;50;0;;-999999;13;14459;0;1;339;14798;1;1;1;1;ProcFischi1;ListBlockFischi;9;1;2;0;0;3;Pr8_B;250;3;ug;3;2;21;1;9;3;1;TrialProc;485;715;Pr8_B;139;1881;1741;ListFischi1;0;;1;201;74448;14;13;1909;76357;485;1;1909;1;267;412;1424;1;1
TMS_Ibrahim;48;2;"<?xml version=""1.0""?>\n<Clock xmlns:dt=""urn:schemas-microsoft-com:datatypes""><Description dt:dt=""string"">E-Prime Primary Realtime Clock</Description><StartTime><Timestamp dt:dt=""int"">0</Timestamp><DateUtc dt:dt=""string"">2023-03-21T10:46:25Z</DateUtc></StartTime><FrequencyChanges><FrequencyChange><Frequency dt:dt=""r8"">3312841</Frequency><Timestamp dt:dt=""r8"">7576160665</Timestamp><Current dt:dt=""r8"">0</Current><DateUtc dt:dt=""string"">2023-03-21T10:46:25Z</DateUtc></FrequencyChange></FrequencyChanges></Clock>\n";TMS_Ibrahim-48-2;75.029;1.0.0.561;1;;-1013119600;2.0.10.242;2.0.10.242;03-21-2023;21/03/2023 10:46;11:46:25;2.0.10.147;0;;-999999;15;12652;0;1;1141;13793;1;1;1;2;1;2;1;BlockProcFischi;BlockList;1;50;0;;-999999;13;14459;0;1;339;14798;1;1;1;1;ProcFischi1;ListBlockFischi;10;1;1;0;0;3;Po2_B;200;2;op;3;2;33;1;10;2;0;TrialProc;600;1575;Po2_B;73;1727;1801;ListFischi1;0;;2;203;81785;8;13;1756;83541;524;1;1756;1;498;544;1232;1;1
TMS_Ibrahim;48;2;"<?xml version=""1.0""?>\n<Clock xmlns:dt=""urn:schemas-microsoft-com:datatypes""><Description dt:dt=""string"">E-Prime Primary Realtime Clock</Description><StartTime><Timestamp dt:dt=""int"">0</Timestamp><DateUtc dt:dt=""string"">2023-03-21T10:46:25Z</DateUtc></StartTime><FrequencyChanges><FrequencyChange><Frequency dt:dt=""r8"">3312841</Frequency><Timestamp dt:dt=""r8"">7576160665</Timestamp><Current dt:dt=""r8"">0</Current><DateUtc dt:dt=""string"">2023-03-21T10:46:25Z</DateUtc></FrequencyChange></FrequencyChanges></Clock>\n";TMS_Ibrahim-48-2;75.029;1.0.0.561;1;;-1013119600;2.0.10.242;2.0.10.242;03-21-2023;21/03/2023 10:46;11:46:25;2.0.10.147;0;;-999999;15;12652;0;1;1141;13793;1;1;1;2;1;2;1;BlockProcFischi;BlockList;1;50;0;;-999999;13;14459;0;1;339;14798;1;1;1;1;ProcFischi1;ListBlockFischi;11;1;2;0;0;3;Pr2_B;225;3;ug;3;2;27;1;11;3;1;TrialProc;663;714;Pr2_B;63;1311;1248;ListFischi1;0;;2;201;89110;14;13;1343;90453;527;1;1343;1;420;231;816;1;1
TMS_Ibrahim;48;2;"<?xml version=""1.0""?>\n<Clock xmlns:dt=""urn:schemas-microsoft-com:datatypes""><Description dt:dt=""string"">E-Prime Primary Realtime Clock</Description><StartTime><Timestamp dt:dt=""int"">0</Timestamp><DateUtc dt:dt=""string"">2023-03-21T10:46:25Z</DateUtc></StartTime><FrequencyChanges><FrequencyChange><Frequency dt:dt=""r8"">3312841</Frequency><Timestamp dt:dt=""r8"">7576160665</Timestamp><Current dt:dt=""r8"">0</Current><DateUtc dt:dt=""string"">2023-03-21T10:46:25Z</DateUtc></FrequencyChange></FrequencyChanges></Clock>\n";TMS_Ibrahim-48-2;75.029;1.0.0.561;1;;-1013119600;2.0.10.242;2.0.10.242;03-21-2023;21/03/2023 10:46;11:46:25;2.0.10.147;0;;-999999;15;12652;0;1;1141;13793;1;1;1;2;1;2;1;BlockProcFischi;BlockList;1;50;0;;-999999;13;14459;0;1;339;14798;1;1;1;1;ProcFischi1;ListBlockFischi;12;1;2;0;0;3;Pr4_B;200;3;ug;3;2;29;1;12;3;1;TrialProc;764;673;Pr4_B;17;1263;1246;ListFischi1;0;;2;203;96070;11;133;2111;98181;431;1;1295;1;784;499;864;1;1
TMS_Ibrahim;48;2;"<?xml version=""1.0""?>\n<Clock xmlns:dt=""urn:schemas-microsoft-com:datatypes""><Description dt:dt=""string"">E-Prime Primary Realtime Clock</Description><StartTime><Timestamp dt:dt=""int"">0</Timestamp><DateUtc dt:dt=""string"">2023-03-21T10:46:25Z</DateUtc></StartTime><FrequencyChanges><FrequencyChange><Frequency dt:dt=""r8"">3312841</Frequency><Timestamp dt:dt=""r8"">7576160665</Timestamp><Current dt:dt=""r8"">0</Current><DateUtc dt:dt=""string"">2023-03-21T10:46:25Z</DateUtc></FrequencyChange></FrequencyChanges></Clock>\n";TMS_Ibrahim-48-2;75.029;1.0.0.561;1;;-1013119600;2.0.10.242;2.0.10.242;03-21-2023;21/03/2023 10:46;11:46:25;2.0.10.147;0;;-999999;15;12652;0;1;1141;13793;1;1;1;2;1;2;1;BlockProcFischi;BlockList;1;50;0;;-999999;13;14459;0;1;339;14798;1;1;1;1;ProcFischi1;ListBlockFischi;13;1;1;0;0;3;Po8_B;175;2;op;3;2;37;1;13;2;0;TrialProc;456;1247;Po8_B;110;1470;1581;ListFischi1;0;;2;201;102331;14;13;1497;103828;570;1;1497;1;536;389;927;1;1
TMS_Ibrahim;48;2;"<?xml version=""1.0""?>\n<Clock xmlns:dt=""urn:schemas-microsoft-com:datatypes""><Description dt:dt=""string"">E-Prime Primary Realtime Clock</Description><StartTime><Timestamp dt:dt=""int"">0</Timestamp><DateUtc dt:dt=""string"">2023-03-21T10:46:25Z</DateUtc></StartTime><FrequencyChanges><FrequencyChange><Frequency dt:dt=""r8"">3312841</Frequency><Timestamp dt:dt=""r8"">7576160665</Timestamp><Current dt:dt=""r8"">0</Current><DateUtc dt:dt=""string"">2023-03-21T10:46:25Z</DateUtc></FrequencyChange></FrequencyChanges></Clock>\n";TMS_Ibrahim-48-2;75.029;1.0.0.561;1;;-1013119600;2.0.10.242;2.0.10.242;03-21-2023;21/03/2023 10:46;11:46:25;2.0.10.147;0;;-999999;15;12652;0;1;1141;13793;1;1;1;2;1;2;1;BlockProcFischi;BlockList;1;50;0;;-999999;13;14459;0;1;339;14798;1;1;1;1;ProcFischi1;ListBlockFischi;14;0;1;1;0;5;Pomod_B;;4;ug;3;2;64;1;14;4;1;TrialProc;691;1311;Pomod_B;178;1494;1671;ListFischi1;0;;2;203;109651;11;13;1521;111172;561;1;1521;1;973;273;960;1;0
TMS_Ibrahim;48;2;"<?xml version=""1.0""?>\n<Clock xmlns:dt=""urn:schemas-microsoft-com:datatypes""><Description dt:dt=""string"">E-Prime Primary Realtime Clock</Description><StartTime><Timestamp dt:dt=""int"">0</Timestamp><DateUtc dt:dt=""string"">2023-03-21T10:46:25Z</DateUtc></StartTime><FrequencyChanges><FrequencyChange><Frequency dt:dt=""r8"">3312841</Frequency><Timestamp dt:dt=""r8"">7576160665</Timestamp><Current dt:dt=""r8"">0</Current><DateUtc dt:dt=""string"">2023-03-21T10:46:25Z</DateUtc></FrequencyChange></FrequencyChanges></Clock>\n";TMS_Ibrahim-48-2;75.029;1.0.0.561;1;;-1013119600;2.0.10.242;2.0.10.242;03-21-2023;21/03/2023 10:46;11:46:25;2.0.10.147;0;;-999999;15;12652;0;1;1141;13793;1;1;1;2;1;2;1;BlockProcFischi;BlockList;1;50;0;;-999999;13;14459;0;1;339;14798;1;1;1;1;ProcFischi1;ListBlockFischi;15;1;1;0;0;5;Po2_B;200;4;ug;5;2;49;1;15;4;1;TrialProc;577;1580;Po2_B;123;1684;1807;ListFischi1;0;;2;201;116993;13;15;1715;118708;563;1;1715;1;606;325;1152;1;1
TMS_Ibrahim;48;2;"<?xml version=""1.0""?>\n<Clock xmlns:dt=""urn:schemas-microsoft-com:datatypes""><Description dt:dt=""string"">E-Prime Primary Realtime Clock</Description><StartTime><Timestamp dt:dt=""int"">0</Timestamp><DateUtc dt:dt=""string"">2023-03-21T10:46:25Z</DateUtc></StartTime><FrequencyChanges><FrequencyChange><Frequency dt:dt=""r8"">3312841</Frequency><Timestamp dt:dt=""r8"">7576160665</Timestamp><Current dt:dt=""r8"">0</Current><DateUtc dt:dt=""string"">2023-03-21T10:46:25Z</DateUtc></FrequencyChange></FrequencyChanges></Clock>\n";TMS_Ibrahim-48-2;75.029;1.0.0.561;1;;-1013119600;2.0.10.242;2.0.10.242;03-21-2023;21/03/2023 10:46;11:46:25;2.0.10.147;0;;-999999;15;12652;0;1;1141;13793;1;1;1;2;1;2;1;BlockProcFischi;BlockList;1;50;0;;-999999;13;14459;0;1;339;14798;1;1;1;1;ProcFischi1;ListBlockFischi;16;1;1;0;0;5;Po5_B;175;4;ug;5;2;52;1;16;4;1;TrialProc;502;974;Po5_B;33;1433;1467;ListFischi1;0;;2;203;124355;8;15;1457;125812;497;1;1457;1;1510;560;960;1;1
TMS_Ibrahim;48;2;"<?xml version=""1.0""?>\n<Clock xmlns:dt=""urn:schemas-microsoft-com:datatypes""><Description dt:dt=""string"">E-Prime Primary Realtime Clock</Description><StartTime><Timestamp dt:dt=""int"">0</Timestamp><DateUtc dt:dt=""string"">2023-03-21T10:46:25Z</DateUtc></StartTime><FrequencyChanges><FrequencyChange><Frequency dt:dt=""r8"">3312841</Frequency><Timestamp dt:dt=""r8"">7576160665</Timestamp><Current dt:dt=""r8"">0</Current><DateUtc dt:dt=""string"">2023-03-21T10:46:25Z</DateUtc></FrequencyChange></FrequencyChanges></Clock>\n";TMS_Ibrahim-48-2;75.029;1.0.0.561;1;;-1013119600;2.0.10.242;2.0.10.242;03-21-2023;21/03/2023 10:46;11:46:25;2.0.10.147;0;;-999999;15;12652;0;1;1141;13793;1;1;1;2;1;2;1;BlockProcFischi;BlockList;1;50;0;;-999999;13;14459;0;1;339;14798;1;1;1;1;ProcFischi1;ListBlockFischi;17;1;2;0;0;5;Pr2_B;175;1;op;5;2;1;1;17;1;0;TrialProc;931;716;Pr2_B;126;1375;1249;ListFischi1;0;;2;201;131720;14;1555;1916;133636;428;1;1404;1;356;362;976;1;1
TMS_Ibrahim;48;2;"<?xml version=""1.0""?>\n<Clock xmlns:dt=""urn:schemas-microsoft-com:datatypes""><Description dt:dt=""string"">E-Prime Primary Realtime Clock</Description><StartTime><Timestamp dt:dt=""int"">0</Timestamp><DateUtc dt:dt=""string"">2023-03-21T10:46:25Z</DateUtc></StartTime><FrequencyChanges><FrequencyChange><Frequency dt:dt=""r8"">3312841</Frequency><Timestamp dt:dt=""r8"">7576160665</Timestamp><Current dt:dt=""r8"">0</Current><DateUtc dt:dt=""string"">2023-03-21T10:46:25Z</DateUtc></FrequencyChange></FrequencyChanges></Clock>\n";TMS_Ibrahim-48-2;75.029;1.0.0.561;1;;-1013119600;2.0.10.242;2.0.10.242;03-21-2023;21/03/2023 10:46;11:46:25;2.0.10.147;0;;-999999;15;12652;0;1;1141;13793;1;1;1;2;1;2;1;BlockProcFischi;BlockList;1;50;0;;-999999;13;14459;0;1;339;14798;1;1;1;1;ProcFischi1;ListBlockFischi;18;1;2;0;0;3;Pr4_B;175;3;ug;3;2;24;1;18;3;1;TrialProc;709;671;Pr4_B;29;1216;1245;ListFischi1;0;;2;203;138493;12;131;3799;142292;439;1;1239;1;556;416;800;1;1
TMS_Ibrahim;48;2;"<?xml version=""1.0""?>\n<Clock xmlns:dt=""urn:schemas-microsoft-com:datatypes""><Description dt:dt=""string"">E-Prime Primary Realtime Clock</Description><StartTime><Timestamp dt:dt=""int"">0</Timestamp><DateUtc dt:dt=""string"">2023-03-21T10:46:25Z</DateUtc></StartTime><FrequencyChanges><FrequencyChange><Frequency dt:dt=""r8"">3312841</Frequency><Timestamp dt:dt=""r8"">7576160665</Timestamp><Current dt:dt=""r8"">0</Current><DateUtc dt:dt=""string"">2023-03-21T10:46:25Z</DateUtc></FrequencyChange></FrequencyChanges></Clock>\n";TMS_Ibrahim-48-2;75.029;1.0.0.561;1;;-1013119600;2.0.10.242;2.0.10.242;03-21-2023;21/03/2023 10:46;11:46:25;2.0.10.147;0;;-999999;15;12652;0;1;1141;13793;1;1;1;2;1;2;1;BlockProcFischi;BlockList;1;50;0;;-999999;13;14459;0;1;339;14798;1;1;1;1;ProcFischi1;ListBlockFischi;19;1;2;0;0;3;Pr8_B;150;3;ug;3;2;26;1;19;3;1;TrialProc;1764;712;Pr8_B;2;1740;1739;ListFischi1;0;;2;201;145997;12;133;2326;148323;775;1;1766;1;875;406;991;1;1
TMS_Ibrahim;48;2;"<?xml version=""1.0""?>\n<Clock xmlns:dt=""urn:schemas-microsoft-com:datatypes""><Description dt:dt=""string"">E-Prime Primary Realtime Clock</Description><StartTime><Timestamp dt:dt=""int"">0</Timestamp><DateUtc dt:dt=""string"">2023-03-21T10:46:25Z</DateUtc></StartTime><FrequencyChanges><FrequencyChange><Frequency dt:dt=""r8"">3312841</Frequency><Timestamp dt:dt=""r8"">7576160665</Timestamp><Current dt:dt=""r8"">0</Current><DateUtc dt:dt=""string"">2023-03-21T10:46:25Z</DateUtc></FrequencyChange></FrequencyChanges></Clock>\n";TMS_Ibrahim-48-2;75.029;1.0.0.561;1;;-1013119600;2.0.10.242;2.0.10.242;03-21-2023;21/03/2023 10:46;11:46:25;2.0.10.147;0;;-999999;15;12652;0;1;1141;13793;1;1;1;2;1;2;1;BlockProcFischi;BlockList;1;50;0;;-999999;13;14459;0;1;339;14798;1;1;1;1;ProcFischi1;ListBlockFischi;20;1;2;0;0;3;Pr5_B;125;3;ug;3;2;30;1;20;3;1;TrialProc;571;670;Pr5_B;226;1496;1270;ListFischi1;0;;2;203;152703;10;133;2516;155219;500;1;1524;1;452;422;1024;1;1
TMS_Ibrahim;48;2;"<?xml version=""1.0""?>\n<Clock xmlns:dt=""urn:schemas-microsoft-com:datatypes""><Description dt:dt=""string"">E-Prime Primary Realtime Clock</Description><StartTime><Timestamp dt:dt=""int"">0</Timestamp><DateUtc dt:dt=""string"">2023-03-21T10:46:25Z</DateUtc></StartTime><FrequencyChanges><FrequencyChange><Frequency dt:dt=""r8"">3312841</Frequency><Timestamp dt:dt=""r8"">7576160665</Timestamp><Current dt:dt=""r8"">0</Current><DateUtc dt:dt=""string"">2023-03-21T10:46:25Z</DateUtc></FrequencyChange></FrequencyChanges></Clock>\n";TMS_Ibrahim-48-2;75.029;1.0.0.561;1;;-1013119600;2.0.10.242;2.0.10.242;03-21-2023;21/03/2023 10:46;11:46:25;2.0.10.147;0;;-999999;15;12652;0;1;1141;13793;1;1;1;2;1;2;1;BlockProcFischi;BlockList;1;50;0;;-999999;13;14459;0;1;339;14798;1;1;1;1;ProcFischi1;ListBlockFischi;21;1;2;0;0;5;Pr2_B;150;1;op;5;2;11;1;21;1;0;TrialProc;545;715;Pr2_B;32;1280;1247;ListFischi1;0;;2;201;159976;14;15;1307;161283;539;1;1307;1;1136;245;768;1;1
TMS_Ibrahim;48;2;"<?xml version=""1.0""?>\n<Clock xmlns:dt=""urn:schemas-microsoft-com:datatypes""><Description dt:dt=""string"">E-Prime Primary Realtime Clock</Description><StartTime><Timestamp dt:dt=""int"">0</Timestamp><DateUtc dt:dt=""string"">2023-03-21T10:46:25Z</DateUtc></StartTime><FrequencyChanges><FrequencyChange><Frequency dt:dt=""r8"">3312841</Frequency><Timestamp dt:dt=""r8"">7576160665</Timestamp><Current dt:dt=""r8"">0</Current><DateUtc dt:dt=""string"">2023-03-21T10:46:25Z</DateUtc></FrequencyChange></FrequencyChanges></Clock>\n";TMS_Ibrahim-48-2;75.029;1.0.0.561;1;;-1013119600;2.0.10.242;2.0.10.242;03-21-2023;21/03/2023 10:46;11:46:25;2.0.10.147;0;;-999999;15;12652;0;1;1141;13793;1;1;1;2;1;2;1;BlockProcFischi;BlockList;1;50;0;;-999999;13;14459;0;1;339;14798;1;1;1;1;ProcFischi1;ListBlockFischi;22;1;2;0;1;3;Pr3_B;125;3;ug;3;2;28;1;22;3;1;TrialProc;541;708;Pr3_B;193;1515;1707;ListFischi1;0;;2;203;167272;8;13;1547;168819;699;1;1547;1;863;306;848;1;1
TMS_Ibrahim;48;2;"<?xml version=""1.0""?>\n<Clock xmlns:dt=""urn:schemas-microsoft-com:datatypes""><Description dt:dt=""string"">E-Prime Primary Realtime Clock</Description><StartTime><Timestamp dt:dt=""int"">0</Timestamp><DateUtc dt:dt=""string"">2023-03-21T10:46:25Z</DateUtc></StartTime><FrequencyChanges><FrequencyChange><Frequency dt:dt=""r8"">3312841</Frequency><Timestamp dt:dt=""r8"">7576160665</Timestamp><Current dt:dt=""r8"">0</Current><DateUtc dt:dt=""string"">2023-03-21T10:46:25Z</DateUtc></FrequencyChange></FrequencyChanges></Clock>\n";TMS_Ibrahim-48-2;75.029;1.0.0.561;1;;-1013119600;2.0.10.242;2.0.10.242;03-21-2023;21/03/2023 10:46;11:46:25;2.0.10.147;0;;-999999;15;12652;0;1;1141;13793;1;1;1;2;1;2;1;BlockProcFischi;BlockList;1;50;0;;-999999;13;14459;0;1;339;14798;1;1;1;1;ProcFischi1;ListBlockFischi;23;1;2;0;0;5;Pr3_B;125;1;op;5;2;12;1;23;1;0;TrialProc;662;711;Pr3_B;54;1657;1711;ListFischi1;0;;2;201;174587;11;15;1688;176275;600;1;1688;1;1085;388;1088;1;1
TMS_Ibrahim;48;2;"<?xml version=""1.0""?>\n<Clock xmlns:dt=""urn:schemas-microsoft-com:datatypes""><Description dt:dt=""string"">E-Prime Primary Realtime Clock</Description><StartTime><Timestamp dt:dt=""int"">0</Timestamp><DateUtc dt:dt=""string"">2023-03-21T10:46:25Z</DateUtc></StartTime><FrequencyChanges><FrequencyChange><Frequency dt:dt=""r8"">3312841</Frequency><Timestamp dt:dt=""r8"">7576160665</Timestamp><Current dt:dt=""r8"">0</Current><DateUtc dt:dt=""string"">2023-03-21T10:46:25Z</DateUtc></FrequencyChange></FrequencyChanges></Clock>\n";TMS_Ibrahim-48-2;75.029;1.0.0.561;1;;-1013119600;2.0.10.242;2.0.10.242;03-21-2023;21/03/2023 10:46;11:46:25;2.0.10.147;0;;-999999;15;12652;0;1;1141;13793;1;1;1;2;1;2;1;BlockProcFischi;BlockList;1;50;0;;-999999;13;14459;0;1;339;14798;1;1;1;1;ProcFischi1;ListBlockFischi;24;1;1;0;0;3;Po2_B;150;2;op;3;2;43;1;24;2;0;TrialProc;525;1573;Po2_B;327;1473;1801;ListFischi1;0;;2;203;182813;8;133;1830;184643;390;1;1494;1;729;405;1104;1;1
TMS_Ibrahim;48;2;"<?xml version=""1.0""?>\n<Clock xmlns:dt=""urn:schemas-microsoft-com:datatypes""><Description dt:dt=""string"">E-Prime Primary Realtime Clock</Description><StartTime><Timestamp dt:dt=""int"">0</Timestamp><DateUtc dt:dt=""string"">2023-03-21T10:46:25Z</DateUtc></StartTime><FrequencyChanges><FrequencyChange><Frequency dt:dt=""r8"">3312841</Frequency><Timestamp dt:dt=""r8"">7576160665</Timestamp><Current dt:dt=""r8"">0</Current><DateUtc dt:dt=""string"">2023-03-21T10:46:25Z</DateUtc></FrequencyChange></FrequencyChanges></Clock>\n";TMS_Ibrahim-48-2;75.029;1.0.0.561;1;;-1013119600;2.0.10.242;2.0.10.242;03-21-2023;21/03/2023 10:46;11:46:25;2.0.10.147;0;;-999999;15;12652;0;1;1141;13793;1;1;1;2;1;2;1;BlockProcFischi;BlockList;1;50;0;;-999999;13;14459;0;1;339;14798;1;1;1;1;ProcFischi1;ListBlockFischi;25;1;2;0;0;5;Pr4_B;100;1;op;5;2;8;1;25;1;0;TrialProc;639;667;Pr4_B;185;1425;1240;ListFischi1;0;;2;201;190184;8;15;1450;191634;394;1;1450;1;1218;354;1056;1;1
TMS_Ibrahim;48;2;"<?xml version=""1.0""?>\n<Clock xmlns:dt=""urn:schemas-microsoft-com:datatypes""><Description dt:dt=""string"">E-Prime Primary Realtime Clock</Description><StartTime><Timestamp dt:dt=""int"">0</Timestamp><DateUtc dt:dt=""string"">2023-03-21T10:46:25Z</DateUtc></StartTime><FrequencyChanges><FrequencyChange><Frequency dt:dt=""r8"">3312841</Frequency><Timestamp dt:dt=""r8"">7576160665</Timestamp><Current dt:dt=""r8"">0</Current><DateUtc dt:dt=""string"">2023-03-21T10:46:25Z</DateUtc></FrequencyChange></FrequencyChanges></Clock>\n";TMS_Ibrahim-48-2;75.029;1.0.0.561;1;;-1013119600;2.0.10.242;2.0.10.242;03-21-2023;21/03/2023 10:46;11:46:25;2.0.10.147;0;;-999999;15;12652;0;1;1141;13793;1;1;1;2;1;2;1;BlockProcFischi;BlockList;1;50;0;;-999999;13;14459;0;1;339;14798;1;1;1;1;ProcFischi1;ListBlockFischi;26;1;2;1;2;3;Prmod_B;125;3;ug;3;2;32;1;26;3;1;TrialProc;516;1312;Prmod_B;1;1645;1647;ListFischi1;0;;2;203;197097;12;13;1673;198770;537;1;1673;1;1307;367;1136;1;1
TMS_Ibrahim;48;2;"<?xml version=""1.0""?>\n<Clock xmlns:dt=""urn:schemas-microsoft-com:datatypes""><Description dt:dt=""string"">E-Prime Primary Realtime Clock</Description><StartTime><Timestamp dt:dt=""int"">0</Timestamp><DateUtc dt:dt=""string"">2023-03-21T10:46:25Z</DateUtc></StartTime><FrequencyChanges><FrequencyChange><Frequency dt:dt=""r8"">3312841</Frequency><Timestamp dt:dt=""r8"">7576160665</Timestamp><Current dt:dt=""r8"">0</Current><DateUtc dt:dt=""string"">2023-03-21T10:46:25Z</DateUtc></FrequencyChange></FrequencyChanges></Clock>\n";TMS_Ibrahim-48-2;75.029;1.0.0.561;1;;-1013119600;2.0.10.242;2.0.10.242;03-21-2023;21/03/2023 10:46;11:46:25;2.0.10.147;0;;-999999;15;12652;0;1;1141;13793;1;1;1;2;1;2;1;BlockProcFischi;BlockList;1;50;0;;-999999;13;14459;0;1;339;14798;1;1;1;1;ProcFischi1;ListBlockFischi;27;1;2;1;1;5;Prmod_B;100;1;op;5;2;16;1;27;1;0;TrialProc;465;1314;Prmod_B;111;1758;1648;ListFischi1;0;;2;201;204546;14;15;1792;206338;464;1;1792;1;779;578;1328;1;1
TMS_Ibrahim;48;2;"<?xml version=""1.0""?>\n<Clock xmlns:dt=""urn:schemas-microsoft-com:datatypes""><Description dt:dt=""string"">E-Prime Primary Realtime Clock</Description><StartTime><Timestamp dt:dt=""int"">0</Timestamp><DateUtc dt:dt=""string"">2023-03-21T10:46:25Z</DateUtc></StartTime><FrequencyChanges><FrequencyChange><Frequency dt:dt=""r8"">3312841</Frequency><Timestamp dt:dt=""r8"">7576160665</Timestamp><Current dt:dt=""r8"">0</Current><DateUtc dt:dt=""string"">2023-03-21T10:46:25Z</DateUtc></FrequencyChange></FrequencyChanges></Clock>\n";TMS_Ibrahim-48-2;75.029;1.0.0.561;1;;-1013119600;2.0.10.242;2.0.10.242;03-21-2023;21/03/2023 10:46;11:46:25;2.0.10.147;0;;-999999;15;12652;0;1;1141;13793;1;1;1;2;1;2;1;BlockProcFischi;BlockList;1;50;0;;-999999;13;14459;0;1;339;14798;1;1;1;1;ProcFischi1;ListBlockFischi;28;1;2;0;1;5;Pr8_B;100;1;op;5;2;5;1;28;1;0;TrialProc;649;713;Pr8_B;32;1772;1740;ListFischi1;0;;2;203;211531;13;151;4359;215890;215;1;1799;1;474;580;1584;1;1
TMS_Ibrahim;48;2;"<?xml version=""1.0""?>\n<Clock xmlns:dt=""urn:schemas-microsoft-com:datatypes""><Description dt:dt=""string"">E-Prime Primary Realtime Clock</Description><StartTime><Timestamp dt:dt=""int"">0</Timestamp><DateUtc dt:dt=""string"">2023-03-21T10:46:25Z</DateUtc></StartTime><FrequencyChanges><FrequencyChange><Frequency dt:dt=""r8"">3312841</Frequency><Timestamp dt:dt=""r8"">7576160665</Timestamp><Current dt:dt=""r8"">0</Current><DateUtc dt:dt=""string"">2023-03-21T10:46:25Z</DateUtc></FrequencyChange></FrequencyChanges></Clock>\n";TMS_Ibrahim-48-2;75.029;1.0.0.561;1;;-1013119600;2.0.10.242;2.0.10.242;03-21-2023;21/03/2023 10:46;11:46:25;2.0.10.147;0;;-999999;15;12652;0;1;1141;13793;1;1;1;2;1;2;1;BlockProcFischi;BlockList;1;50;0;;-999999;13;14459;0;1;339;14798;1;1;1;1;ProcFischi1;ListBlockFischi;29;1;2;0;0;3;Pr5_B;100;3;ug;3;2;20;1;29;3;1;TrialProc;519;673;Pr5_B;225;1498;1273;ListFischi1;0;;2;201;218596;12;13;1518;220114;382;1;1518;1;564;547;1136;1;1
TMS_Ibrahim;48;2;"<?xml version=""1.0""?>\n<Clock xmlns:dt=""urn:schemas-microsoft-com:datatypes""><Description dt:dt=""string"">E-Prime Primary Realtime Clock</Description><StartTime><Timestamp dt:dt=""int"">0</Timestamp><DateUtc dt:dt=""string"">2023-03-21T10:46:25Z</DateUtc></StartTime><FrequencyChanges><FrequencyChange><Frequency dt:dt=""r8"">3312841</Frequency><Timestamp dt:dt=""r8"">7576160665</Timestamp><Current dt:dt=""r8"">0</Current><DateUtc dt:dt=""string"">2023-03-21T10:46:25Z</DateUtc></FrequencyChange></FrequencyChanges></Clock>\n";TMS_Ibrahim-48-2;75.029;1.0.0.561;1;;-1013119600;2.0.10.242;2.0.10.242;03-21-2023;21/03/2023 10:46;11:46:25;2.0.10.147;0;;-999999;15;12652;0;1;1141;13793;1;1;1;2;1;2;1;BlockProcFischi;BlockList;1;50;0;;-999999;13;14459;0;1;339;14798;1;1;1;1;ProcFischi1;ListBlockFischi;30;1;2;0;1;3;Pr5_B;100;3;ug;3;2;25;1;30;3;1;TrialProc;608;672;Pr5_B;133;1403;1271;ListFischi1;0;;2;203;225580;12;13;1430;227010;358;1;1430;1;1110;204;1072;1;1
TMS_Ibrahim;48;2;"<?xml version=""1.0""?>\n<Clock xmlns:dt=""urn:schemas-microsoft-com:datatypes""><Description dt:dt=""string"">E-Prime Primary Realtime Clock</Description><StartTime><Timestamp dt:dt=""int"">0</Timestamp><DateUtc dt:dt=""string"">2023-03-21T10:46:25Z</DateUtc></StartTime><FrequencyChanges><FrequencyChange><Frequency dt:dt=""r8"">3312841</Frequency><Timestamp dt:dt=""r8"">7576160665</Timestamp><Current dt:dt=""r8"">0</Current><DateUtc dt:dt=""string"">2023-03-21T10:46:25Z</DateUtc></FrequencyChange></FrequencyChanges></Clock>\n";TMS_Ibrahim-48-2;75.029;1.0.0.561;1;;-1013119600;2.0.10.242;2.0.10.242;03-21-2023;21/03/2023 10:46;11:46:25;2.0.10.147;0;;-999999;15;12652;0;1;1141;13793;1;1;1;2;1;2;1;BlockProcFischi;BlockList;1;50;0;;-999999;13;14459;0;1;339;14798;1;1;1;1;ProcFischi1;ListBlockFischi;31;1;2;0;0;5;Pr3_B;75;1;op;5;2;2;1;31;1;0;TrialProc;583;713;Pr3_B;94;1617;1711;ListFischi1;0;;2;201;232977;12;15;1648;234625;656;1;1648;1;338;480;992;1;1
TMS_Ibrahim;48;2;"<?xml version=""1.0""?>\n<Clock xmlns:dt=""urn:schemas-microsoft-com:datatypes""><Description dt:dt=""string"">E-Prime Primary Realtime Clock</Description><StartTime><Timestamp dt:dt=""int"">0</Timestamp><DateUtc dt:dt=""string"">2023-03-21T10:46:25Z</DateUtc></StartTime><FrequencyChanges><FrequencyChange><Frequency dt:dt=""r8"">3312841</Frequency><Timestamp dt:dt=""r8"">7576160665</Timestamp><Current dt:dt=""r8"">0</Current><DateUtc dt:dt=""string"">2023-03-21T10:46:25Z</DateUtc></FrequencyChange></FrequencyChanges></Clock>\n";TMS_Ibrahim-48-2;75.029;1.0.0.561;1;;-1013119600;2.0.10.242;2.0.10.242;03-21-2023;21/03/2023 10:46;11:46:25;2.0.10.147;0;;-999999;15;12652;0;1;1141;13793;1;1;1;2;1;2;1;BlockProcFischi;BlockList;1;50;0;;-999999;13;14459;0;1;339;14798;1;1;1;1;ProcFischi1;ListBlockFischi;32;1;2;0;2;3;Pr3_B;100;3;ug;3;2;18;1;32;3;1;TrialProc;539;709;Pr3_B;21;1687;1709;ListFischi1;0;;2;203;240124;9;1333;2661;242785;501;1;1717;1;1467;359;1216;1;1
TMS_Ibrahim;48;2;"<?xml version=""1.0""?>\n<Clock xmlns:dt=""urn:schemas-microsoft-com:datatypes""><Description dt:dt=""string"">E-Prime Primary Realtime Clock</Description><StartTime><Timestamp dt:dt=""int"">0</Timestamp><DateUtc dt:dt=""string"">2023-03-21T10:46:25Z</DateUtc></StartTime><FrequencyChanges><FrequencyChange><Frequency dt:dt=""r8"">3312841</Frequency><Timestamp dt:dt=""r8"">7576160665</Timestamp><Current dt:dt=""r8"">0</Current><DateUtc dt:dt=""string"">2023-03-21T10:46:25Z</DateUtc></FrequencyChange></FrequencyChanges></Clock>\n";TMS_Ibrahim-48-2;75.029;1.0.0.561;1;;-1013119600;2.0.10.242;2.0.10.242;03-21-2023;21/03/2023 10:46;11:46:25;2.0.10.147;0;;-999999;15;12652;0;1;1141;13793;1;1;1;2;1;2;1;BlockProcFischi;BlockList;1;50;0;;-999999;13;14459;0;1;339;14798;1;1;1;1;ProcFischi1;ListBlockFischi;33;1;2;0;0;5;Pr2_B;75;1;op;5;2;6;1;33;1;0;TrialProc;630;715;Pr2_B;100;1347;1247;ListFischi1;0;;2;201;246570;14;155;2391;248961;567;1;1367;1;792;342;800;1;1
TMS_Ibrahim;48;2;"<?xml version=""1.0""?>\n<Clock xmlns:dt=""urn:schemas-microsoft-com:datatypes""><Description dt:dt=""string"">E-Prime Primary Realtime Clock</Description><StartTime><Timestamp dt:dt=""int"">0</Timestamp><DateUtc dt:dt=""string"">2023-03-21T10:46:25Z</DateUtc></StartTime><FrequencyChanges><FrequencyChange><Frequency dt:dt=""r8"">3312841</Frequency><Timestamp dt:dt=""r8"">7576160665</Timestamp><Current dt:dt=""r8"">0</Current><DateUtc dt:dt=""string"">2023-03-21T10:46:25Z</DateUtc></FrequencyChange></FrequencyChanges></Clock>\n";TMS_Ibrahim-48-2;75.029;1.0.0.561;1;;-1013119600;2.0.10.242;2.0.10.242;03-21-2023;21/03/2023 10:46;11:46:25;2.0.10.147;0;;-999999;15;12652;0;1;1141;13793;1;1;1;2;1;2;1;BlockProcFischi;BlockList;1;50;0;;-999999;13;14459;0;1;339;14798;1;1;1;1;ProcFischi1;ListBlockFischi;34;1;1;0;0;5;Po3_B;150;4;ug;5;2;50;1;34;4;1;TrialProc;1242;1318;Po3_B;186;1398;1585;ListFischi1;0;;2;203;252642;19;15;1423;254065;511;1;1423;1;988;292;912;1;1
TMS_Ibrahim;48;2;"<?xml version=""1.0""?>\n<Clock xmlns:dt=""urn:schemas-microsoft-com:datatypes""><Description dt:dt=""string"">E-Prime Primary Realtime Clock</Description><StartTime><Timestamp dt:dt=""int"">0</Timestamp><DateUtc dt:dt=""string"">2023-03-21T10:46:25Z</DateUtc></StartTime><FrequencyChanges><FrequencyChange><Frequency dt:dt=""r8"">3312841</Frequency><Timestamp dt:dt=""r8"">7576160665</Timestamp><Current dt:dt=""r8"">0</Current><DateUtc dt:dt=""string"">2023-03-21T10:46:25Z</DateUtc></FrequencyChange></FrequencyChanges></Clock>\n";TMS_Ibrahim-48-2;75.029;1.0.0.561;1;;-1013119600;2.0.10.242;2.0.10.242;03-21-2023;21/03/2023 10:46;11:46:25;2.0.10.147;0;;-999999;15;12652;0;1;1141;13793;1;1;1;2;1;2;1;BlockProcFischi;BlockList;1;50;0;;-999999;13;14459;0;1;339;14798;1;1;1;1;ProcFischi1;ListBlockFischi;35;1;1;0;1;3;Po3_B;150;2;op;3;2;44;1;35;2;0;TrialProc;567;1312;Po3_B;273;1306;1579;ListFischi1;0;;1;201;259901;11;13;1332;261233;484;1;1332;1;378;351;848;1;1
TMS_Ibrahim;48;2;"<?xml version=""1.0""?>\n<Clock xmlns:dt=""urn:schemas-microsoft-com:datatypes""><Description dt:dt=""string"">E-Prime Primary Realtime Clock</Description><StartTime><Timestamp dt:dt=""int"">0</Timestamp><DateUtc dt:dt=""string"">2023-03-21T10:46:25Z</DateUtc></StartTime><FrequencyChanges><FrequencyChange><Frequency dt:dt=""r8"">3312841</Frequency><Timestamp dt:dt=""r8"">7576160665</Timestamp><Current dt:dt=""r8"">0</Current><DateUtc dt:dt=""string"">2023-03-21T10:46:25Z</DateUtc></FrequencyChange></FrequencyChanges></Clock>\n";TMS_Ibrahim-48-2;75.029;1.0.0.561;1;;-1013119600;2.0.10.242;2.0.10.242;03-21-2023;21/03/2023 10:46;11:46:25;2.0.10.147;0;;-999999;15;12652;0;1;1141;13793;1;1;1;2;1;2;1;BlockProcFischi;BlockList;1;50;0;;-999999;13;14459;0;1;339;14798;1;1;1;1;ProcFischi1;ListBlockFischi;36;0;1;1;1;5;Pomod_B;;4;ug;3;2;63;1;36;4;1;TrialProc;915;1314;Pomod_B;226;1447;1674;ListFischi1;0;;2;203;267537;12;133;1824;269361;464;1;1472;1;563;455;1008;1;0
TMS_Ibrahim;48;2;"<?xml version=""1.0""?>\n<Clock xmlns:dt=""urn:schemas-microsoft-com:datatypes""><Description dt:dt=""string"">E-Prime Primary Realtime Clock</Description><StartTime><Timestamp dt:dt=""int"">0</Timestamp><DateUtc dt:dt=""string"">2023-03-21T10:46:25Z</DateUtc></StartTime><FrequencyChanges><FrequencyChange><Frequency dt:dt=""r8"">3312841</Frequency><Timestamp dt:dt=""r8"">7576160665</Timestamp><Current dt:dt=""r8"">0</Current><DateUtc dt:dt=""string"">2023-03-21T10:46:25Z</DateUtc></FrequencyChange></FrequencyChanges></Clock>\n";TMS_Ibrahim-48-2;75.029;1.0.0.561;1;;-1013119600;2.0.10.242;2.0.10.242;03-21-2023;21/03/2023 10:46;11:46:25;2.0.10.147;0;;-999999;15;12652;0;1;1141;13793;1;1;1;2;1;2;1;BlockProcFischi;BlockList;1;50;0;;-999999;13;14459;0;1;339;14798;1;1;1;1;ProcFischi1;ListBlockFischi;37;1;1;0;1;5;Po3_B;150;4;ug;5;2;60;1;37;4;1;TrialProc;557;1307;Po3_B;134;1441;1575;ListFischi1;0;;2;203;278457;8;115;1463;279920;167;1;1463;1;407;384;1296;1;1
TMS_Ibrahim;48;2;"<?xml version=""1.0""?>\n<Clock xmlns:dt=""urn:schemas-microsoft-com:datatypes""><Description dt:dt=""string"">E-Prime Primary Realtime Clock</Description><StartTime><Timestamp dt:dt=""int"">0</Timestamp><DateUtc dt:dt=""string"">2023-03-21T10:46:25Z</DateUtc></StartTime><FrequencyChanges><FrequencyChange><Frequency dt:dt=""r8"">3312841</Frequency><Timestamp dt:dt=""r8"">7576160665</Timestamp><Current dt:dt=""r8"">0</Current><DateUtc dt:dt=""string"">2023-03-21T10:46:25Z</DateUtc></FrequencyChange></FrequencyChanges></Clock>\n";TMS_Ibrahim-48-2;75.029;1.0.0.561;1;;-1013119600;2.0.10.242;2.0.10.242;03-21-2023;21/03/2023 10:46;11:46:25;2.0.10.147;0;;-999999;15;12652;0;1;1141;13793;1;1;1;2;1;2;1;BlockProcFischi;BlockList;1;50;0;;-999999;13;14459;0;1;339;14798;1;1;1;1;ProcFischi1;ListBlockFischi;38;1;1;0;2;3;Po5_B;150;2;op;3;2;41;1;38;2;0;TrialProc;507;981;Po5_B;164;1310;1473;ListFischi1;0;;2;201;285955;14;13;1341;287296;445;1;1341;1;343;237;896;1;1
TMS_Ibrahim;48;2;"<?xml version=""1.0""?>\n<Clock xmlns:dt=""urn:schemas-microsoft-com:datatypes""><Description dt:dt=""string"">E-Prime Primary Realtime Clock</Description><StartTime><Timestamp dt:dt=""int"">0</Timestamp><DateUtc dt:dt=""string"">2023-03-21T10:46:25Z</DateUtc></StartTime><FrequencyChanges><FrequencyChange><Frequency dt:dt=""r8"">3312841</Frequency><Timestamp dt:dt=""r8"">7576160665</Timestamp><Current dt:dt=""r8"">0</Current><DateUtc dt:dt=""string"">2023-03-21T10:46:25Z</DateUtc></FrequencyChange></FrequencyChanges></Clock>\n";TMS_Ibrahim-48-2;75.029;1.0.0.561;1;;-1013119600;2.0.10.242;2.0.10.242;03-21-2023;21/03/2023 10:46;11:46:25;2.0.10.147;0;;-999999;15;12652;0;1;1141;13793;1;1;1;2;1;2;1;BlockProcFischi;BlockList;1;50;0;;-999999;13;14459;0;1;339;14798;1;1;1;1;ProcFischi1;ListBlockFischi;39;1;1;0;2;3;Po4_B;150;2;op;3;2;40;1;39;2;0;TrialProc;576;1339;Po4_B;268;1443;1712;ListFischi1;0;;2;203;293513;13;13;1479;294992;455;1;1479;1;345;435;1024;1;1
TMS_Ibrahim;48;2;"<?xml version=""1.0""?>\n<Clock xmlns:dt=""urn:schemas-microsoft-com:datatypes""><Description dt:dt=""string"">E-Prime Primary Realtime Clock</Description><StartTime><Timestamp dt:dt=""int"">0</Timestamp><DateUtc dt:dt=""string"">2023-03-21T10:46:25Z</DateUtc></StartTime><FrequencyChanges><FrequencyChange><Frequency dt:dt=""r8"">3312841</Frequency><Timestamp dt:dt=""r8"">7576160665</Timestamp><Current dt:dt=""r8"">0</Current><DateUtc dt:dt=""string"">2023-03-21T10:46:25Z</DateUtc></FrequencyChange></FrequencyChanges></Clock>\n";TMS_Ibrahim-48-2;75.029;1.0.0.561;1;;-1013119600;2.0.10.242;2.0.10.242;03-21-2023;21/03/2023 10:46;11:46:25;2.0.10.147;0;;-999999;15;12652;0;1;1141;13793;1;1;1;2;1;2;1;BlockProcFischi;BlockList;1;50;0;;-999999;13;14459;0;1;339;14798;1;1;1;1;ProcFischi1;ListBlockFischi;40;1;1;0;1;5;Po4_B;150;4;ug;5;2;56;1;40;4;1;TrialProc;639;1336;Po4_B;302;1407;1709;ListFischi1;0;;1;201;301260;10;155;1572;302832;484;1;1428;1;494;573;944;1;1
TMS_Ibrahim;48;2;"<?xml version=""1.0""?>\n<Clock xmlns:dt=""urn:schemas-microsoft-com:datatypes""><Description dt:dt=""string"">E-Prime Primary Realtime Clock</Description><StartTime><Timestamp dt:dt=""int"">0</Timestamp><DateUtc dt:dt=""string"">2023-03-21T10:46:25Z</DateUtc></StartTime><FrequencyChanges><FrequencyChange><Frequency dt:dt=""r8"">3312841</Frequency><Timestamp dt:dt=""r8"">7576160665</Timestamp><Current dt:dt=""r8"">0</Current><DateUtc dt:dt=""string"">2023-03-21T10:46:25Z</DateUtc></FrequencyChange></FrequencyChanges></Clock>\n";TMS_Ibrahim-48-2;75.029;1.0.0.561;1;;-1013119600;2.0.10.242;2.0.10.242;03-21-2023;21/03/2023 10:46;11:46:25;2.0.10.147;0;;-999999;15;12652;0;1;1141;13793;1;1;1;2;1;2;1;BlockProcFischi;BlockList;1;50;0;;-999999;13;14459;0;1;339;14798;1;1;1;1;ProcFischi1;ListBlockFischi;41;1;1;0;0;3;Po5_B;175;2;op;3;2;36;1;41;2;0;TrialProc;530;979;Po5_B;115;1358;1473;ListFischi1;0;;2;203;308654;13;13;1378;310032;402;1;1378;1;304;254;976;1;1
TMS_Ibrahim;48;2;"<?xml version=""1.0""?>\n<Clock xmlns:dt=""urn:schemas-microsoft-com:datatypes""><Description dt:dt=""string"">E-Prime Primary Realtime Clock</Description><StartTime><Timestamp dt:dt=""int"">0</Timestamp><DateUtc dt:dt=""string"">2023-03-21T10:46:25Z</DateUtc></StartTime><FrequencyChanges><FrequencyChange><Frequency dt:dt=""r8"">3312841</Frequency><Timestamp dt:dt=""r8"">7576160665</Timestamp><Current dt:dt=""r8"">0</Current><DateUtc dt:dt=""string"">2023-03-21T10:46:25Z</DateUtc></FrequencyChange></FrequencyChanges></Clock>\n";TMS_Ibrahim-48-2;75.029;1.0.0.561;1;;-1013119600;2.0.10.242;2.0.10.242;03-21-2023;21/03/2023 10:46;11:46:25;2.0.10.147;0;;-999999;15;12652;0;1;1141;13793;1;1;1;2;1;2;1;BlockProcFischi;BlockList;1;50;0;;-999999;13;14459;0;1;339;14798;1;1;1;1;ProcFischi1;ListBlockFischi;42;1;1;0;0;3;Po2_B;150;2;op;3;2;38;1;42;2;0;TrialProc;553;1577;Po2_B;270;1534;1804;ListFischi1;0;;1;201;315988;9;133;2747;318735;364;1;1563;1;431;449;1199;1;1
TMS_Ibrahim;48;2;"<?xml version=""1.0""?>\n<Clock xmlns:dt=""urn:schemas-microsoft-com:datatypes""><Description dt:dt=""string"">E-Prime Primary Realtime Clock</Description><StartTime><Timestamp dt:dt=""int"">0</Timestamp><DateUtc dt:dt=""string"">2023-03-21T10:46:25Z</DateUtc></StartTime><FrequencyChanges><FrequencyChange><Frequency dt:dt=""r8"">3312841</Frequency><Timestamp dt:dt=""r8"">7576160665</Timestamp><Current dt:dt=""r8"">0</Current><DateUtc dt:dt=""string"">2023-03-21T10:46:25Z</DateUtc></FrequencyChange></FrequencyChanges></Clock>\n";TMS_Ibrahim-48-2;75.029;1.0.0.561;1;;-1013119600;2.0.10.242;2.0.10.242;03-21-2023;21/03/2023 10:46;11:46:25;2.0.10.147;0;;-999999;15;12652;0;1;1141;13793;1;1;1;2;1;2;1;BlockProcFischi;BlockList;1;50;0;;-999999;13;14459;0;1;339;14798;1;1;1;1;ProcFischi1;ListBlockFischi;43;1;2;0;0;5;Pr4_B;75;1;op;5;2;13;1;43;1;0;TrialProc;544;672;Pr4_B;236;1481;1244;ListFischi1;0;;2;203;322239;9;15;1504;323743;432;1;1504;1;302;414;1072;1;1
TMS_Ibrahim;48;2;"<?xml version=""1.0""?>\n<Clock xmlns:dt=""urn:schemas-microsoft-com:datatypes""><Description dt:dt=""string"">E-Prime Primary Realtime Clock</Description><StartTime><Timestamp dt:dt=""int"">0</Timestamp><DateUtc dt:dt=""string"">2023-03-21T10:46:25Z</DateUtc></StartTime><FrequencyChanges><FrequencyChange><Frequency dt:dt=""r8"">3312841</Frequency><Timestamp dt:dt=""r8"">7576160665</Timestamp><Current dt:dt=""r8"">0</Current><DateUtc dt:dt=""string"">2023-03-21T10:46:25Z</DateUtc></FrequencyChange></FrequencyChanges></Clock>\n";TMS_Ibrahim-48-2;75.029;1.0.0.561;1;;-1013119600;2.0.10.242;2.0.10.242;03-21-2023;21/03/2023 10:46;11:46:25;2.0.10.147;0;;-999999;15;12652;0;1;1141;13793;1;1;1;2;1;2;1;BlockProcFischi;BlockList;1;50;0;;-999999;13;14459;0;1;339;14798;1;1;1;1;ProcFischi1;ListBlockFischi;44;1;2;0;1;5;Pr3_B;75;1;op;5;2;7;1;44;1;0;TrialProc;891;712;Pr3_B;178;1532;1710;ListFischi1;0;;2;201;329288;11;15;1559;330847;391;1;1559;1;293;295;1168;1;1
TMS_Ibrahim;48;2;"<?xml version=""1.0""?>\n<Clock xmlns:dt=""urn:schemas-microsoft-com:datatypes""><Description dt:dt=""string"">E-Prime Primary Realtime Clock</Description><StartTime><Timestamp dt:dt=""int"">0</Timestamp><DateUtc dt:dt=""string"">2023-03-21T10:46:25Z</DateUtc></StartTime><FrequencyChanges><FrequencyChange><Frequency dt:dt=""r8"">3312841</Frequency><Timestamp dt:dt=""r8"">7576160665</Timestamp><Current dt:dt=""r8"">0</Current><DateUtc dt:dt=""string"">2023-03-21T10:46:25Z</DateUtc></FrequencyChange></FrequencyChanges></Clock>\n";TMS_Ibrahim-48-2;75.029;1.0.0.561;1;;-1013119600;2.0.10.242;2.0.10.242;03-21-2023;21/03/2023 10:46;11:46:25;2.0.10.147;0;;-999999;15;12652;0;1;1141;13793;1;1;1;2;1;2;1;BlockProcFischi;BlockList;1;50;0;;-999999;13;14459;0;1;339;14798;1;1;1;1;ProcFischi1;ListBlockFischi;45;1;2;0;0;3;Pr3_B;75;3;ug;3;2;23;1;45;3;1;TrialProc;575;709;Pr3_B;32;1677;1709;ListFischi1;0;;2;203;336593;10;13;1710;338303;574;1;1710;1;230;446;1136;1;1
TMS_Ibrahim;48;2;"<?xml version=""1.0""?>\n<Clock xmlns:dt=""urn:schemas-microsoft-com:datatypes""><Description dt:dt=""string"">E-Prime Primary Realtime Clock</Description><StartTime><Timestamp dt:dt=""int"">0</Timestamp><DateUtc dt:dt=""string"">2023-03-21T10:46:25Z</DateUtc></StartTime><FrequencyChanges><FrequencyChange><Frequency dt:dt=""r8"">3312841</Frequency><Timestamp dt:dt=""r8"">7576160665</Timestamp><Current dt:dt=""r8"">0</Current><DateUtc dt:dt=""string"">2023-03-21T10:46:25Z</DateUtc></FrequencyChange></FrequencyChanges></Clock>\n";TMS_Ibrahim-48-2;75.029;1.0.0.561;1;;-1013119600;2.0.10.242;2.0.10.242;03-21-2023;21/03/2023 10:46;11:46:25;2.0.10.147;0;;-999999;15;12652;0;1;1141;13793;1;1;1;2;1;2;1;BlockProcFischi;BlockList;1;50;0;;-999999;13;14459;0;1;339;14798;1;1;1;1;ProcFischi1;ListBlockFischi;46;1;1;0;2;5;Po4_B;150;4;ug;5;2;61;1;46;4;1;TrialProc;555;1341;Po4_B;241;1473;1714;ListFischi1;0;;2;201;343985;15;15;1502;345487;446;1;1502;1;388;591;1056;1;1
TMS_Ibrahim;48;2;"<?xml version=""1.0""?>\n<Clock xmlns:dt=""urn:schemas-microsoft-com:datatypes""><Description dt:dt=""string"">E-Prime Primary Realtime Clock</Description><StartTime><Timestamp dt:dt=""int"">0</Timestamp><DateUtc dt:dt=""string"">2023-03-21T10:46:25Z</DateUtc></StartTime><FrequencyChanges><FrequencyChange><Frequency dt:dt=""r8"">3312841</Frequency><Timestamp dt:dt=""r8"">7576160665</Timestamp><Current dt:dt=""r8"">0</Current><DateUtc dt:dt=""string"">2023-03-21T10:46:25Z</DateUtc></FrequencyChange></FrequencyChanges></Clock>\n";TMS_Ibrahim-48-2;75.029;1.0.0.561;1;;-1013119600;2.0.10.242;2.0.10.242;03-21-2023;21/03/2023 10:46;11:46:25;2.0.10.147;0;;-999999;15;12652;0;1;1141;13793;1;1;1;2;1;2;1;BlockProcFischi;BlockList;1;50;0;;-999999;13;14459;0;1;339;14798;1;1;1;1;ProcFischi1;ListBlockFischi;47;1;2;1;0;3;Prmod_B;50;3;ug;3;2;31;1;47;3;1;TrialProc;538;1317;Prmod_B;15;1634;1650;ListFischi1;0;;2;203;351487;17;13;1664;353151;368;1;1664;1;298;373;1296;1;1
TMS_Ibrahim;48;2;"<?xml version=""1.0""?>\n<Clock xmlns:dt=""urn:schemas-microsoft-com:datatypes""><Description dt:dt=""string"">E-Prime Primary Realtime Clock</Description><StartTime><Timestamp dt:dt=""int"">0</Timestamp><DateUtc dt:dt=""string"">2023-03-21T10:46:25Z</DateUtc></StartTime><FrequencyChanges><FrequencyChange><Frequency dt:dt=""r8"">3312841</Frequency><Timestamp dt:dt=""r8"">7576160665</Timestamp><Current dt:dt=""r8"">0</Current><DateUtc dt:dt=""string"">2023-03-21T10:46:25Z</DateUtc></FrequencyChange></FrequencyChanges></Clock>\n";TMS_Ibrahim-48-2;75.029;1.0.0.561;1;;-1013119600;2.0.10.242;2.0.10.242;03-21-2023;21/03/2023 10:46;11:46:25;2.0.10.147;0;;-999999;15;12652;0;1;1141;13793;1;1;1;2;1;2;1;BlockProcFischi;BlockList;1;50;0;;-999999;13;14459;0;1;339;14798;1;1;1;1;ProcFischi1;ListBlockFischi;48;1;1;0;1;3;Po4_B;150;2;op;3;2;45;1;48;2;0;TrialProc;619;1343;Po4_B;226;1490;1716;ListFischi1;0;;1;201;358700;14;13;1523;360223;547;1;1523;1;321;544;976;1;1
TMS_Ibrahim;48;2;"<?xml version=""1.0""?>\n<Clock xmlns:dt=""urn:schemas-microsoft-com:datatypes""><Description dt:dt=""string"">E-Prime Primary Realtime Clock</Description><StartTime><Timestamp dt:dt=""int"">0</Timestamp><DateUtc dt:dt=""string"">2023-03-21T10:46:25Z</DateUtc></StartTime><FrequencyChanges><FrequencyChange><Frequency dt:dt=""r8"">3312841</Frequency><Timestamp dt:dt=""r8"">7576160665</Timestamp><Current dt:dt=""r8"">0</Current><DateUtc dt:dt=""string"">2023-03-21T10:46:25Z</DateUtc></FrequencyChange></FrequencyChanges></Clock>\n";TMS_Ibrahim-48-2;75.029;1.0.0.561;1;;-1013119600;2.0.10.242;2.0.10.242;03-21-2023;21/03/2023 10:46;11:46:25;2.0.10.147;0;;-999999;15;12652;0;1;1141;13793;1;1;1;2;1;2;1;BlockProcFischi;BlockList;1;50;0;;-999999;13;14459;0;1;339;14798;1;1;1;1;ProcFischi1;ListBlockFischi;49;1;1;0;0;5;Po5_B;175;4;ug;5;2;57;1;49;4;1;TrialProc;543;977;Po5_B;212;1683;1471;ListFischi1;0;;1;203;365954;11;15;1708;367662;396;1;1708;1;302;460;1312;1;1
TMS_Ibrahim;48;2;"<?xml version=""1.0""?>\n<Clock xmlns:dt=""urn:schemas-microsoft-com:datatypes""><Description dt:dt=""string"">E-Prime Primary Realtime Clock</Description><StartTime><Timestamp dt:dt=""int"">0</Timestamp><DateUtc dt:dt=""string"">2023-03-21T10:46:25Z</DateUtc></StartTime><FrequencyChanges><FrequencyChange><Frequency dt:dt=""r8"">3312841</Frequency><Timestamp dt:dt=""r8"">7576160665</Timestamp><Current dt:dt=""r8"">0</Current><DateUtc dt:dt=""string"">2023-03-21T10:46:25Z</DateUtc></FrequencyChange></FrequencyChanges></Clock>\n";TMS_Ibrahim-48-2;75.029;1.0.0.561;1;;-1013119600;2.0.10.242;2.0.10.242;03-21-2023;21/03/2023 10:46;11:46:25;2.0.10.147;0;;-999999;15;12652;0;1;1141;13793;1;1;1;2;1;2;1;BlockProcFischi;BlockList;1;50;0;;-999999;13;14459;0;1;339;14798;1;1;1;1;ProcFischi1;ListBlockFischi;50;1;1;0;1;5;Po5_B;175;4;ug;5;2;62;1;50;4;1;TrialProc;490;977;Po5_B;25;1494;1470;ListFischi1;0;;2;201;372818;11;15;1516;374334;428;1;1516;1;437;555;1088;1;1
TMS_Ibrahim;48;2;"<?xml version=""1.0""?>\n<Clock xmlns:dt=""urn:schemas-microsoft-com:datatypes""><Description dt:dt=""string"">E-Prime Primary Realtime Clock</Description><StartTime><Timestamp dt:dt=""int"">0</Timestamp><DateUtc dt:dt=""string"">2023-03-21T10:46:25Z</DateUtc></StartTime><FrequencyChanges><FrequencyChange><Frequency dt:dt=""r8"">3312841</Frequency><Timestamp dt:dt=""r8"">7576160665</Timestamp><Current dt:dt=""r8"">0</Current><DateUtc dt:dt=""string"">2023-03-21T10:46:25Z</DateUtc></FrequencyChange></FrequencyChanges></Clock>\n";TMS_Ibrahim-48-2;75.029;1.0.0.561;1;;-1013119600;2.0.10.242;2.0.10.242;03-21-2023;21/03/2023 10:46;11:46:25;2.0.10.147;0;;-999999;15;12652;0;1;1141;13793;1;1;1;2;1;2;1;BlockProcFischi;BlockList;1;50;0;;-999999;13;14459;0;1;339;14798;1;1;1;1;ProcFischi1;ListBlockFischi;51;1;1;0;0;5;Po3_B;150;4;ug;5;2;55;1;51;4;1;TrialProc;737;1311;Po3_B;113;1692;1578;ListFischi1;0;;2;203;379841;12;15;1725;381566;445;1;1725;1;316;297;1280;1;1
TMS_Ibrahim;48;2;"<?xml version=""1.0""?>\n<Clock xmlns:dt=""urn:schemas-microsoft-com:datatypes""><Description dt:dt=""string"">E-Prime Primary Realtime Clock</Description><StartTime><Timestamp dt:dt=""int"">0</Timestamp><DateUtc dt:dt=""string"">2023-03-21T10:46:25Z</DateUtc></StartTime><FrequencyChanges><FrequencyChange><Frequency dt:dt=""r8"">3312841</Frequency><Timestamp dt:dt=""r8"">7576160665</Timestamp><Current dt:dt=""r8"">0</Current><DateUtc dt:dt=""string"">2023-03-21T10:46:25Z</DateUtc></FrequencyChange></FrequencyChanges></Clock>\n";TMS_Ibrahim-48-2;75.029;1.0.0.561;1;;-1013119600;2.0.10.242;2.0.10.242;03-21-2023;21/03/2023 10:46;11:46:25;2.0.10.147;0;;-999999;15;12652;0;1;1141;13793;1;1;1;2;1;2;1;BlockProcFischi;BlockList;1;50;0;;-999999;13;14459;0;1;339;14798;1;1;1;1;ProcFischi1;ListBlockFischi;52;1;1;0;0;5;Po2_B;125;4;ug;5;2;59;1;52;4;1;TrialProc;532;1579;Po2_B;121;1684;1806;ListFischi1;0;;2;201;386877;13;15;1713;388590;417;1;1713;1;381;368;1296;1;1
TMS_Ibrahim;48;2;"<?xml version=""1.0""?>\n<Clock xmlns:dt=""urn:schemas-microsoft-com:datatypes""><Description dt:dt=""string"">E-Prime Primary Realtime Clock</Description><StartTime><Timestamp dt:dt=""int"">0</Timestamp><DateUtc dt:dt=""string"">2023-03-21T10:46:25Z</DateUtc></StartTime><FrequencyChanges><FrequencyChange><Frequency dt:dt=""r8"">3312841</Frequency><Timestamp dt:dt=""r8"">7576160665</Timestamp><Current dt:dt=""r8"">0</Current><DateUtc dt:dt=""string"">2023-03-21T10:46:25Z</DateUtc></FrequencyChange></FrequencyChanges></Clock>\n";TMS_Ibrahim-48-2;75.029;1.0.0.561;1;;-1013119600;2.0.10.242;2.0.10.242;03-21-2023;21/03/2023 10:46;11:46:25;2.0.10.147;0;;-999999;15;12652;0;1;1141;13793;1;1;1;2;1;2;1;BlockProcFischi;BlockList;1;50;0;;-999999;13;14459;0;1;339;14798;1;1;1;1;ProcFischi1;ListBlockFischi;53;1;2;1;2;5;Prmod_B;75;1;op;5;2;15;1;53;1;0;TrialProc;701;1311;Prmod_B;2;1646;1645;ListFischi1;0;;2;203;394329;12;15;1669;395998;373;1;1669;1;394;556;1296;1;1
TMS_Ibrahim;48;2;"<?xml version=""1.0""?>\n<Clock xmlns:dt=""urn:schemas-microsoft-com:datatypes""><Description dt:dt=""string"">E-Prime Primary Realtime Clock</Description><StartTime><Timestamp dt:dt=""int"">0</Timestamp><DateUtc dt:dt=""string"">2023-03-21T10:46:25Z</DateUtc></StartTime><FrequencyChanges><FrequencyChange><Frequency dt:dt=""r8"">3312841</Frequency><Timestamp dt:dt=""r8"">7576160665</Timestamp><Current dt:dt=""r8"">0</Current><DateUtc dt:dt=""string"">2023-03-21T10:46:25Z</DateUtc></FrequencyChange></FrequencyChanges></Clock>\n";TMS_Ibrahim-48-2;75.029;1.0.0.561;1;;-1013119600;2.0.10.242;2.0.10.242;03-21-2023;21/03/2023 10:46;11:46:25;2.0.10.147;0;;-999999;15;12652;0;1;1141;13793;1;1;1;2;1;2;1;BlockProcFischi;BlockList;1;50;0;;-999999;13;14459;0;1;339;14798;1;1;1;1;ProcFischi1;ListBlockFischi;54;1;1;0;0;5;Po2_B;125;4;ug;5;2;54;1;54;4;1;TrialProc;968;1579;Po2_B;192;1615;1807;ListFischi1;0;;2;201;401364;14;15;1642;403006;505;1;1642;1;433;350;1137;1;1
TMS_Ibrahim;48;2;"<?xml version=""1.0""?>\n<Clock xmlns:dt=""urn:schemas-microsoft-com:datatypes""><Description dt:dt=""string"">E-Prime Primary Realtime Clock</Description><StartTime><Timestamp dt:dt=""int"">0</Timestamp><DateUtc dt:dt=""string"">2023-03-21T10:46:25Z</DateUtc></StartTime><FrequencyChanges><FrequencyChange><Frequency dt:dt=""r8"">3312841</Frequency><Timestamp dt:dt=""r8"">7576160665</Timestamp><Current dt:dt=""r8"">0</Current><DateUtc dt:dt=""string"">2023-03-21T10:46:25Z</DateUtc></FrequencyChange></FrequencyChanges></Clock>\n";TMS_Ibrahim-48-2;75.029;1.0.0.561;1;;-1013119600;2.0.10.242;2.0.10.242;03-21-2023;21/03/2023 10:46;11:46:25;2.0.10.147;0;;-999999;15;12652;0;1;1141;13793;1;1;1;2;1;2;1;BlockProcFischi;BlockList;1;50;0;;-999999;13;14459;0;1;339;14798;1;1;1;1;ProcFischi1;ListBlockFischi;55;1;1;0;2;3;Po8_B;150;2;op;3;2;42;1;55;2;0;TrialProc;751;1249;Po8_B;50;1633;1582;ListFischi1;0;;2;203;408973;16;13;1664;410637;384;1;1664;1;460;508;1280;1;1
TMS_Ibrahim;48;2;"<?xml version=""1.0""?>\n<Clock xmlns:dt=""urn:schemas-microsoft-com:datatypes""><Description dt:dt=""string"">E-Prime Primary Realtime Clock</Description><StartTime><Timestamp dt:dt=""int"">0</Timestamp><DateUtc dt:dt=""string"">2023-03-21T10:46:25Z</DateUtc></StartTime><FrequencyChanges><FrequencyChange><Frequency dt:dt=""r8"">3312841</Frequency><Timestamp dt:dt=""r8"">7576160665</Timestamp><Current dt:dt=""r8"">0</Current><DateUtc dt:dt=""string"">2023-03-21T10:46:25Z</DateUtc></FrequencyChange></FrequencyChanges></Clock>\n";TMS_Ibrahim-48-2;75.029;1.0.0.561;1;;-1013119600;2.0.10.242;2.0.10.242;03-21-2023;21/03/2023 10:46;11:46:25;2.0.10.147;0;;-999999;15;12652;0;1;1141;13793;1;1;1;2;1;2;1;BlockProcFischi;BlockList;1;50;0;;-999999;13;14459;0;1;339;14798;1;1;1;1;ProcFischi1;ListBlockFischi;56;1;1;0;0;3;Po4_B;125;2;op;3;2;35;1;56;2;0;TrialProc;543;1335;Po4_B;181;1527;1708;ListFischi1;0;;2;201;416163;9;13;1562;417725;394;1;1562;1;239;318;1168;1;1
TMS_Ibrahim;48;2;"<?xml version=""1.0""?>\n<Clock xmlns:dt=""urn:schemas-microsoft-com:datatypes""><Description dt:dt=""string"">E-Prime Primary Realtime Clock</Description><StartTime><Timestamp dt:dt=""int"">0</Timestamp><DateUtc dt:dt=""string"">2023-03-21T10:46:25Z</DateUtc></StartTime><FrequencyChanges><FrequencyChange><Frequency dt:dt=""r8"">3312841</Frequency><Timestamp dt:dt=""r8"">7576160665</Timestamp><Current dt:dt=""r8"">0</Current><DateUtc dt:dt=""string"">2023-03-21T10:46:25Z</DateUtc></FrequencyChange></FrequencyChanges></Clock>\n";TMS_Ibrahim-48-2;75.029;1.0.0.561;1;;-1013119600;2.0.10.242;2.0.10.242;03-21-2023;21/03/2023 10:46;11:46:25;2.0.10.147;0;;-999999;15;12652;0;1;1141;13793;1;1;1;2;1;2;1;BlockProcFischi;BlockList;1;50;0;;-999999;13;14459;0;1;339;14798;1;1;1;1;ProcFischi1;ListBlockFischi;57;1;2;0;0;3;Pr2_B;25;3;ug;3;2;17;1;57;3;1;TrialProc;529;711;Pr2_B;83;1328;1245;ListFischi1;0;;2;203;423453;10;13;1360;424813;352;1;1360;1;291;568;1008;1;1
TMS_Ibrahim;48;2;"<?xml version=""1.0""?>\n<Clock xmlns:dt=""urn:schemas-microsoft-com:datatypes""><Description dt:dt=""string"">E-Prime Primary Realtime Clock</Description><StartTime><Timestamp dt:dt=""int"">0</Timestamp><DateUtc dt:dt=""string"">2023-03-21T10:46:25Z</DateUtc></StartTime><FrequencyChanges><FrequencyChange><Frequency dt:dt=""r8"">3312841</Frequency><Timestamp dt:dt=""r8"">7576160665</Timestamp><Current dt:dt=""r8"">0</Current><DateUtc dt:dt=""string"">2023-03-21T10:46:25Z</DateUtc></FrequencyChange></FrequencyChanges></Clock>\n";TMS_Ibrahim-48-2;75.029;1.0.0.561;1;;-1013119600;2.0.10.242;2.0.10.242;03-21-2023;21/03/2023 10:46;11:46:25;2.0.10.147;0;;-999999;15;12652;0;1;1141;13793;1;1;1;2;1;2;1;BlockProcFischi;BlockList;1;50;0;;-999999;13;14459;0;1;339;14798;1;1;1;1;ProcFischi1;ListBlockFischi;58;1;2;0;0;5;Pr5_B;50;1;op;5;2;9;1;58;1;0;TrialProc;680;676;Pr5_B;183;1459;1276;ListFischi1;0;;2;201;430406;14;15;1479;431885;423;1;1479;1;1079;508;1056;1;1
TMS_Ibrahim;48;2;"<?xml version=""1.0""?>\n<Clock xmlns:dt=""urn:schemas-microsoft-com:datatypes""><Description dt:dt=""string"">E-Prime Primary Realtime Clock</Description><StartTime><Timestamp dt:dt=""int"">0</Timestamp><DateUtc dt:dt=""string"">2023-03-21T10:46:25Z</DateUtc></StartTime><FrequencyChanges><FrequencyChange><Frequency dt:dt=""r8"">3312841</Frequency><Timestamp dt:dt=""r8"">7576160665</Timestamp><Current dt:dt=""r8"">0</Current><DateUtc dt:dt=""string"">2023-03-21T10:46:25Z</DateUtc></FrequencyChange></FrequencyChanges></Clock>\n";TMS_Ibrahim-48-2;75.029;1.0.0.561;1;;-1013119600;2.0.10.242;2.0.10.242;03-21-2023;21/03/2023 10:46;11:46:25;2.0.10.147;0;;-999999;15;12652;0;1;1141;13793;1;1;1;2;1;2;1;BlockProcFischi;BlockList;1;50;0;;-999999;13;14459;0;1;339;14798;1;1;1;1;ProcFischi1;ListBlockFischi;59;1;2;0;1;3;Pr4_B;25;3;ug;3;2;19;1;59;3;1;TrialProc;594;673;Pr4_B;35;1282;1246;ListFischi1;0;;2;203;437339;12;13;1314;438653;370;1;1314;1;499;400;944;1;1
TMS_Ibrahim;48;2;"<?xml version=""1.0""?>\n<Clock xmlns:dt=""urn:schemas-microsoft-com:datatypes""><Description dt:dt=""string"">E-Prime Primary Realtime Clock</Description><StartTime><Timestamp dt:dt=""int"">0</Timestamp><DateUtc dt:dt=""string"">2023-03-21T10:46:25Z</DateUtc></StartTime><FrequencyChanges><FrequencyChange><Frequency dt:dt=""r8"">3312841</Frequency><Timestamp dt:dt=""r8"">7576160665</Timestamp><Current dt:dt=""r8"">0</Current><DateUtc dt:dt=""string"">2023-03-21T10:46:25Z</DateUtc></FrequencyChange></FrequencyChanges></Clock>\n";TMS_Ibrahim-48-2;75.029;1.0.0.561;1;;-1013119600;2.0.10.242;2.0.10.242;03-21-2023;21/03/2023 10:46;11:46:25;2.0.10.147;0;;-999999;15;12652;0;1;1141;13793;1;1;1;2;1;2;1;BlockProcFischi;BlockList;1;50;0;;-999999;13;14459;0;1;339;14798;1;1;1;1;ProcFischi1;ListBlockFischi;60;1;1;0;1;5;Po4_B;125;4;ug;5;2;51;1;60;4;1;TrialProc;529;1342;Po4_B;340;1375;1716;ListFischi1;0;;2;201;444468;14;15;1400;445868;425;1;1400;1;459;465;975;1;1
TMS_Ibrahim;48;2;"<?xml version=""1.0""?>\n<Clock xmlns:dt=""urn:schemas-microsoft-com:datatypes""><Description dt:dt=""string"">E-Prime Primary Realtime Clock</Description><StartTime><Timestamp dt:dt=""int"">0</Timestamp><DateUtc dt:dt=""string"">2023-03-21T10:46:25Z</DateUtc></StartTime><FrequencyChanges><FrequencyChange><Frequency dt:dt=""r8"">3312841</Frequency><Timestamp dt:dt=""r8"">7576160665</Timestamp><Current dt:dt=""r8"">0</Current><DateUtc dt:dt=""string"">2023-03-21T10:46:25Z</DateUtc></FrequencyChange></FrequencyChanges></Clock>\n";TMS_Ibrahim-48-2;75.029;1.0.0.561;1;;-1013119600;2.0.10.242;2.0.10.242;03-21-2023;21/03/2023 10:46;11:46:25;2.0.10.147;0;;-999999;15;12652;0;1;1141;13793;1;1;1;2;1;2;1;BlockProcFischi;BlockList;1;50;0;;-999999;13;14459;0;1;339;14798;1;1;1;1;ProcFischi1;ListBlockFischi;61;1;1;1;1;3;Pomod_B;125;2;op;3;2;47;1;61;2;0;TrialProc;769;1308;Pomod_B;212;1882;1669;ListFischi1;0;;2;203;452124;8;13;1904;454028;512;1;1904;1;951;510;1392;1;1
TMS_Ibrahim;48;2;"<?xml version=""1.0""?>\n<Clock xmlns:dt=""urn:schemas-microsoft-com:datatypes""><Description dt:dt=""string"">E-Prime Primary Realtime Clock</Description><StartTime><Timestamp dt:dt=""int"">0</Timestamp><DateUtc dt:dt=""string"">2023-03-21T10:46:25Z</DateUtc></StartTime><FrequencyChanges><FrequencyChange><Frequency dt:dt=""r8"">3312841</Frequency><Timestamp dt:dt=""r8"">7576160665</Timestamp><Current dt:dt=""r8"">0</Current><DateUtc dt:dt=""string"">2023-03-21T10:46:25Z</DateUtc></FrequencyChange></FrequencyChanges></Clock>\n";TMS_Ibrahim-48-2;75.029;1.0.0.561;1;;-1013119600;2.0.10.242;2.0.10.242;03-21-2023;21/03/2023 10:46;11:46:25;2.0.10.147;0;;-999999;15;12652;0;1;1141;13793;1;1;1;2;1;2;1;BlockProcFischi;BlockList;1;50;0;;-999999;13;14459;0;1;339;14798;1;1;1;1;ProcFischi1;ListBlockFischi;62;1;2;0;1;5;Pr4_B;50;1;op;5;2;3;1;62;1;0;TrialProc;644;675;Pr4_B;113;1361;1247;ListFischi1;0;;2;201;459262;14;15;1390;460652;382;1;1390;1;309;404;1008;1;1
TMS_Ibrahim;48;2;"<?xml version=""1.0""?>\n<Clock xmlns:dt=""urn:schemas-microsoft-com:datatypes""><Description dt:dt=""string"">E-Prime Primary Realtime Clock</Description><StartTime><Timestamp dt:dt=""int"">0</Timestamp><DateUtc dt:dt=""string"">2023-03-21T10:46:25Z</DateUtc></StartTime><FrequencyChanges><FrequencyChange><Frequency dt:dt=""r8"">3312841</Frequency><Timestamp dt:dt=""r8"">7576160665</Timestamp><Current dt:dt=""r8"">0</Current><DateUtc dt:dt=""string"">2023-03-21T10:46:25Z</DateUtc></FrequencyChange></FrequencyChanges></Clock>\n";TMS_Ibrahim-48-2;75.029;1.0.0.561;1;;-1013119600;2.0.10.242;2.0.10.242;03-21-2023;21/03/2023 10:46;11:46:25;2.0.10.147;0;;-999999;15;12652;0;1;1141;13793;1;1;1;2;1;2;1;BlockProcFischi;BlockList;1;50;0;;-999999;13;14459;0;1;339;14798;1;1;1;1;ProcFischi1;ListBlockFischi;63;1;2;0;1;3;Pr2_B;25;3;ug;3;2;22;1;63;3;1;TrialProc;599;712;Pr2_B;69;1177;1246;ListFischi1;0;;2;203;466341;12;13;1207;467548;312;1;1207;1;370;381;895;1;1
TMS_Ibrahim;48;2;"<?xml version=""1.0""?>\n<Clock xmlns:dt=""urn:schemas-microsoft-com:datatypes""><Description dt:dt=""string"">E-Prime Primary Realtime Clock</Description><StartTime><Timestamp dt:dt=""int"">0</Timestamp><DateUtc dt:dt=""string"">2023-03-21T10:46:25Z</DateUtc></StartTime><FrequencyChanges><FrequencyChange><Frequency dt:dt=""r8"">3312841</Frequency><Timestamp dt:dt=""r8"">7576160665</Timestamp><Current dt:dt=""r8"">0</Current><DateUtc dt:dt=""string"">2023-03-21T10:46:25Z</DateUtc></FrequencyChange></FrequencyChanges></Clock>\n";TMS_Ibrahim-48-2;75.029;1.0.0.561;1;;-1013119600;2.0.10.242;2.0.10.242;03-21-2023;21/03/2023 10:46;11:46:25;2.0.10.147;0;;-999999;15;12652;0;1;1141;13793;1;1;1;2;1;2;1;BlockProcFischi;BlockList;1;50;0;;-999999;13;14459;0;1;339;14798;1;1;1;1;ProcFischi1;ListBlockFischi;64;1;1;0;2;3;Po3_B;125;2;op;3;2;39;1;64;2;0;TrialProc;581;1311;Po3_B;262;1315;1578;ListFischi1;0;;2;201;473541;10;133;1719;475260;439;1;1335;1;209;247;896;1;1
TMS_Ibrahim;48;4;"<?xml version=""1.0""?>\n<Clock xmlns:dt=""urn:schemas-microsoft-com:datatypes""><Description dt:dt=""string"">E-Prime Primary Realtime Clock</Description><StartTime><Timestamp dt:dt=""int"">0</Timestamp><DateUtc dt:dt=""string"">2023-03-21T11:49:28Z</DateUtc></StartTime><FrequencyChanges><FrequencyChange><Frequency dt:dt=""r8"">3312841</Frequency><Timestamp dt:dt=""r8"">20108245833</Timestamp><Current dt:dt=""r8"">0</Current><DateUtc dt:dt=""string"">2023-03-21T11:49:28Z</DateUtc></FrequencyChange></FrequencyChanges></Clock>\n";TMS_Ibrahim-48-4;75.029;1.0.0.561;1; ;-1365958707;2.0.10.242;2.0.10.242;03-21-2023;21/03/2023 11:49;12:49:28;2.0.10.147;0;;-999999;21;19289;0;1;1620;20909;1;1;1;2;1;0;1;BlockProcFischi;BlockList;1;75;0;;-999999;13;23216;0;1;1117;24333;1;1;1;1;ProcFischi1;ListBlockFischi;1;0;2;1;0;5;Prmod_B;;1;op;3;2;16;1;1;1;0;TrialProc;1669;1332;Prmod_B;426;1238;1664;ListFischi1;0;;5;210;26726;21;13;1271;27997;455;1;1271;1;437;458;816;1;0
TMS_Ibrahim;48;4;"<?xml version=""1.0""?>\n<Clock xmlns:dt=""urn:schemas-microsoft-com:datatypes""><Description dt:dt=""string"">E-Prime Primary Realtime Clock</Description><StartTime><Timestamp dt:dt=""int"">0</Timestamp><DateUtc dt:dt=""string"">2023-03-21T11:49:28Z</DateUtc></StartTime><FrequencyChanges><FrequencyChange><Frequency dt:dt=""r8"">3312841</Frequency><Timestamp dt:dt=""r8"">20108245833</Timestamp><Current dt:dt=""r8"">0</Current><DateUtc dt:dt=""string"">2023-03-21T11:49:28Z</DateUtc></FrequencyChange></FrequencyChanges></Clock>\n";TMS_Ibrahim-48-4;75.029;1.0.0.561;1; ;-1365958707;2.0.10.242;2.0.10.242;03-21-2023;21/03/2023 11:49;12:49:28;2.0.10.147;0;;-999999;21;19289;0;1;1620;20909;1;1;1;2;1;0;1;BlockProcFischi;BlockList;1;75;0;;-999999;13;23216;0;1;1117;24333;1;1;1;1;ProcFischi1;ListBlockFischi;2;1;2;0;0;3;Pr2_B;250;3;ug;3;2;22;1;2;3;1;TrialProc;2098;717;Pr2_B;81;1333;1251;ListFischi1;0;;3;204;34992;19;133;1756;36748;444;1;1356;1;872;367;912;1;1
TMS_Ibrahim;48;4;"<?xml version=""1.0""?>\n<Clock xmlns:dt=""urn:schemas-microsoft-com:datatypes""><Description dt:dt=""string"">E-Prime Primary Realtime Clock</Description><StartTime><Timestamp dt:dt=""int"">0</Timestamp><DateUtc dt:dt=""string"">2023-03-21T11:49:28Z</DateUtc></StartTime><FrequencyChanges><FrequencyChange><Frequency dt:dt=""r8"">3312841</Frequency><Timestamp dt:dt=""r8"">20108245833</Timestamp><Current dt:dt=""r8"">0</Current><DateUtc dt:dt=""string"">2023-03-21T11:49:28Z</DateUtc></FrequencyChange></FrequencyChanges></Clock>\n";TMS_Ibrahim-48-4;75.029;1.0.0.561;1; ;-1365958707;2.0.10.242;2.0.10.242;03-21-2023;21/03/2023 11:49;12:49:28;2.0.10.147;0;;-999999;21;19289;0;1;1620;20909;1;1;1;2;1;0;1;BlockProcFischi;BlockList;1;75;0;;-999999;13;23216;0;1;1117;24333;1;1;1;1;ProcFischi1;ListBlockFischi;3;1;2;0;0;5;Pr8_B;250;1;op;5;2;5;1;3;1;0;TrialProc;1321;713;Pr8_B;121;1860;1739;ListFischi1;0;;2;201;42516;12;15;1880;44396;680;1;1880;1;1191;245;1200;1;1
TMS_Ibrahim;48;4;"<?xml version=""1.0""?>\n<Clock xmlns:dt=""urn:schemas-microsoft-com:datatypes""><Description dt:dt=""string"">E-Prime Primary Realtime Clock</Description><StartTime><Timestamp dt:dt=""int"">0</Timestamp><DateUtc dt:dt=""string"">2023-03-21T11:49:28Z</DateUtc></StartTime><FrequencyChanges><FrequencyChange><Frequency dt:dt=""r8"">3312841</Frequency><Timestamp dt:dt=""r8"">20108245833</Timestamp><Current dt:dt=""r8"">0</Current><DateUtc dt:dt=""string"">2023-03-21T11:49:28Z</DateUtc></FrequencyChange></FrequencyChanges></Clock>\n";TMS_Ibrahim-48-4;75.029;1.0.0.561;1; ;-1365958707;2.0.10.242;2.0.10.242;03-21-2023;21/03/2023 11:49;12:49:28;2.0.10.147;0;;-999999;21;19289;0;1;1620;20909;1;1;1;2;1;0;1;BlockProcFischi;BlockList;1;75;0;;-999999;13;23216;0;1;1117;24333;1;1;1;1;ProcFischi1;ListBlockFischi;4;1;1;0;0;5;Po4_B;250;4;ug;5;2;56;1;4;4;1;TrialProc;2753;1339;Po4_B;215;1499;1714;ListFischi1;0;;2;203;51950;14;155;2334;54284;526;1;1534;1;1092;314;1008;1;1
TMS_Ibrahim;48;4;"<?xml version=""1.0""?>\n<Clock xmlns:dt=""urn:schemas-microsoft-com:datatypes""><Description dt:dt=""string"">E-Prime Primary Realtime Clock</Description><StartTime><Timestamp dt:dt=""int"">0</Timestamp><DateUtc dt:dt=""string"">2023-03-21T11:49:28Z</DateUtc></StartTime><FrequencyChanges><FrequencyChange><Frequency dt:dt=""r8"">3312841</Frequency><Timestamp dt:dt=""r8"">20108245833</Timestamp><Current dt:dt=""r8"">0</Current><DateUtc dt:dt=""string"">2023-03-21T11:49:28Z</DateUtc></FrequencyChange></FrequencyChanges></Clock>\n";TMS_Ibrahim-48-4;75.029;1.0.0.561;1; ;-1365958707;2.0.10.242;2.0.10.242;03-21-2023;21/03/2023 11:49;12:49:28;2.0.10.147;0;;-999999;21;19289;0;1;1620;20909;1;1;1;2;1;0;1;BlockProcFischi;BlockList;1;75;0;;-999999;13;23216;0;1;1117;24333;1;1;1;1;ProcFischi1;ListBlockFischi;5;1;2;0;0;5;Pr8_B;225;1;op;5;2;10;1;5;1;0;TrialProc;2890;712;Pr8_B;48;1787;1740;ListFischi1;0;;2;201;59443;12;155;2505;61948;569;1;1817;1;411;387;1248;1;1
TMS_Ibrahim;48;4;"<?xml version=""1.0""?>\n<Clock xmlns:dt=""urn:schemas-microsoft-com:datatypes""><Description dt:dt=""string"">E-Prime Primary Realtime Clock</Description><StartTime><Timestamp dt:dt=""int"">0</Timestamp><DateUtc dt:dt=""string"">2023-03-21T11:49:28Z</DateUtc></StartTime><FrequencyChanges><FrequencyChange><Frequency dt:dt=""r8"">3312841</Frequency><Timestamp dt:dt=""r8"">20108245833</Timestamp><Current dt:dt=""r8"">0</Current><DateUtc dt:dt=""string"">2023-03-21T11:49:28Z</DateUtc></FrequencyChange></FrequencyChanges></Clock>\n";TMS_Ibrahim-48-4;75.029;1.0.0.561;1; ;-1365958707;2.0.10.242;2.0.10.242;03-21-2023;21/03/2023 11:49;12:49:28;2.0.10.147;0;;-999999;21;19289;0;1;1620;20909;1;1;1;2;1;0;1;BlockProcFischi;BlockList;1;75;0;;-999999;13;23216;0;1;1117;24333;1;1;1;1;ProcFischi1;ListBlockFischi;6;1;1;0;0;5;Po4_B;225;4;ug;5;2;61;1;6;4;1;TrialProc;1757;1336;Po4_B;204;1506;1710;ListFischi1;0;;2;203;66549;10;15;1527;68076;471;1;1527;1;1158;572;1056;1;1
TMS_Ibrahim;48;4;"<?xml version=""1.0""?>\n<Clock xmlns:dt=""urn:schemas-microsoft-com:datatypes""><Description dt:dt=""string"">E-Prime Primary Realtime Clock</Description><StartTime><Timestamp dt:dt=""int"">0</Timestamp><DateUtc dt:dt=""string"">2023-03-21T11:49:28Z</DateUtc></StartTime><FrequencyChanges><FrequencyChange><Frequency dt:dt=""r8"">3312841</Frequency><Timestamp dt:dt=""r8"">20108245833</Timestamp><Current dt:dt=""r8"">0</Current><DateUtc dt:dt=""string"">2023-03-21T11:49:28Z</DateUtc></FrequencyChange></FrequencyChanges></Clock>\n";TMS_Ibrahim-48-4;75.029;1.0.0.561;1; ;-1365958707;2.0.10.242;2.0.10.242;03-21-2023;21/03/2023 11:49;12:49:28;2.0.10.147;0;;-999999;21;19289;0;1;1620;20909;1;1;1;2;1;0;1;BlockProcFischi;BlockList;1;75;0;;-999999;13;23216;0;1;1117;24333;1;1;1;1;ProcFischi1;ListBlockFischi;7;1;2;0;0;3;Pr2_B;225;3;ug;3;2;27;1;7;3;1;TrialProc;2198;710;Pr2_B;98;1343;1244;ListFischi1;0;;2;203;76012;10;13;1375;77387;399;1;1375;1;2429;586;976;1;1
TMS_Ibrahim;48;4;"<?xml version=""1.0""?>\n<Clock xmlns:dt=""urn:schemas-microsoft-com:datatypes""><Description dt:dt=""string"">E-Prime Primary Realtime Clock</Description><StartTime><Timestamp dt:dt=""int"">0</Timestamp><DateUtc dt:dt=""string"">2023-03-21T11:49:28Z</DateUtc></StartTime><FrequencyChanges><FrequencyChange><Frequency dt:dt=""r8"">3312841</Frequency><Timestamp dt:dt=""r8"">20108245833</Timestamp><Current dt:dt=""r8"">0</Current><DateUtc dt:dt=""string"">2023-03-21T11:49:28Z</DateUtc></FrequencyChange></FrequencyChanges></Clock>\n";TMS_Ibrahim-48-4;75.029;1.0.0.561;1; ;-1365958707;2.0.10.242;2.0.10.242;03-21-2023;21/03/2023 11:49;12:49:28;2.0.10.147;0;;-999999;21;19289;0;1;1620;20909;1;1;1;2;1;0;1;BlockProcFischi;BlockList;1;75;0;;-999999;13;23216;0;1;1117;24333;1;1;1;1;ProcFischi1;ListBlockFischi;8;1;2;0;0;5;Pr2_B;200;1;op;5;2;1;1;8;1;0;TrialProc;492;709;Pr2_B;23;1219;1242;ListFischi1;0;;2;203;85250;8;15;1241;86491;345;1;1241;1;1962;594;896;1;1
TMS_Ibrahim;48;4;"<?xml version=""1.0""?>\n<Clock xmlns:dt=""urn:schemas-microsoft-com:datatypes""><Description dt:dt=""string"">E-Prime Primary Realtime Clock</Description><StartTime><Timestamp dt:dt=""int"">0</Timestamp><DateUtc dt:dt=""string"">2023-03-21T11:49:28Z</DateUtc></StartTime><FrequencyChanges><FrequencyChange><Frequency dt:dt=""r8"">3312841</Frequency><Timestamp dt:dt=""r8"">20108245833</Timestamp><Current dt:dt=""r8"">0</Current><DateUtc dt:dt=""string"">2023-03-21T11:49:28Z</DateUtc></FrequencyChange></FrequencyChanges></Clock>\n";TMS_Ibrahim-48-4;75.029;1.0.0.561;1; ;-1365958707;2.0.10.242;2.0.10.242;03-21-2023;21/03/2023 11:49;12:49:28;2.0.10.147;0;;-999999;21;19289;0;1;1620;20909;1;1;1;2;1;0;1;BlockProcFischi;BlockList;1;75;0;;-999999;13;23216;0;1;1117;24333;1;1;1;1;ProcFischi1;ListBlockFischi;9;1;2;0;0;3;Pr5_B;200;3;ug;3;2;25;1;9;3;1;TrialProc;907;671;Pr5_B;72;1344;1272;ListFischi1;0;;2;203;92937;11;13;1378;94315;418;1;1378;1;2071;253;960;1;1
TMS_Ibrahim;48;4;"<?xml version=""1.0""?>\n<Clock xmlns:dt=""urn:schemas-microsoft-com:datatypes""><Description dt:dt=""string"">E-Prime Primary Realtime Clock</Description><StartTime><Timestamp dt:dt=""int"">0</Timestamp><DateUtc dt:dt=""string"">2023-03-21T11:49:28Z</DateUtc></StartTime><FrequencyChanges><FrequencyChange><Frequency dt:dt=""r8"">3312841</Frequency><Timestamp dt:dt=""r8"">20108245833</Timestamp><Current dt:dt=""r8"">0</Current><DateUtc dt:dt=""string"">2023-03-21T11:49:28Z</DateUtc></FrequencyChange></FrequencyChanges></Clock>\n";TMS_Ibrahim-48-4;75.029;1.0.0.561;1; ;-1365958707;2.0.10.242;2.0.10.242;03-21-2023;21/03/2023 11:49;12:49:28;2.0.10.147;0;;-999999;21;19289;0;1;1620;20909;1;1;1;2;1;0;1;BlockProcFischi;BlockList;1;75;0;;-999999;13;23216;0;1;1117;24333;1;1;1;1;ProcFischi1;ListBlockFischi;10;1;1;0;0;3;Po4_B;250;2;op;3;2;40;1;10;2;0;TrialProc;2231;1337;Po4_B;295;1414;1709;ListFischi1;0;;2;203;101709;10;133;2878;104587;430;1;1438;1;897;556;1008;1;1
TMS_Ibrahim;48;4;"<?xml version=""1.0""?>\n<Clock xmlns:dt=""urn:schemas-microsoft-com:datatypes""><Description dt:dt=""string"">E-Prime Primary Realtime Clock</Description><StartTime><Timestamp dt:dt=""int"">0</Timestamp><DateUtc dt:dt=""string"">2023-03-21T11:49:28Z</DateUtc></StartTime><FrequencyChanges><FrequencyChange><Frequency dt:dt=""r8"">3312841</Frequency><Timestamp dt:dt=""r8"">20108245833</Timestamp><Current dt:dt=""r8"">0</Current><DateUtc dt:dt=""string"">2023-03-21T11:49:28Z</DateUtc></FrequencyChange></FrequencyChanges></Clock>\n";TMS_Ibrahim-48-4;75.029;1.0.0.561;1; ;-1365958707;2.0.10.242;2.0.10.242;03-21-2023;21/03/2023 11:49;12:49:28;2.0.10.147;0;;-999999;21;19289;0;1;1620;20909;1;1;1;2;1;0;1;BlockProcFischi;BlockList;1;75;0;;-999999;13;23216;0;1;1117;24333;1;1;1;1;ProcFischi1;ListBlockFischi;11;1;1;0;1;3;Po5_B;250;2;op;3;2;41;1;11;2;0;TrialProc;2652;982;Po5_B;211;1265;1476;ListFischi1;0;;2;201;108701;15;13;1294;109995;350;1;1294;1;1648;243;944;1;1
TMS_Ibrahim;48;4;"<?xml version=""1.0""?>\n<Clock xmlns:dt=""urn:schemas-microsoft-com:datatypes""><Description dt:dt=""string"">E-Prime Primary Realtime Clock</Description><StartTime><Timestamp dt:dt=""int"">0</Timestamp><DateUtc dt:dt=""string"">2023-03-21T11:49:28Z</DateUtc></StartTime><FrequencyChanges><FrequencyChange><Frequency dt:dt=""r8"">3312841</Frequency><Timestamp dt:dt=""r8"">20108245833</Timestamp><Current dt:dt=""r8"">0</Current><DateUtc dt:dt=""string"">2023-03-21T11:49:28Z</DateUtc></FrequencyChange></FrequencyChanges></Clock>\n";TMS_Ibrahim-48-4;75.029;1.0.0.561;1; ;-1365958707;2.0.10.242;2.0.10.242;03-21-2023;21/03/2023 11:49;12:49:28;2.0.10.147;0;;-999999;21;19289;0;1;1620;20909;1;1;1;2;1;0;1;BlockProcFischi;BlockList;1;75;0;;-999999;13;23216;0;1;1117;24333;1;1;1;1;ProcFischi1;ListBlockFischi;12;1;1;1;0;5;Pomod_B;225;4;ug;5;2;63;1;12;4;1;TrialProc;2438;1317;Pomod_B;85;1762;1677;ListFischi1;0;;2;203;117575;17;15;1795;119370;435;1;1795;1;530;221;1360;1;1
TMS_Ibrahim;48;4;"<?xml version=""1.0""?>\n<Clock xmlns:dt=""urn:schemas-microsoft-com:datatypes""><Description dt:dt=""string"">E-Prime Primary Realtime Clock</Description><StartTime><Timestamp dt:dt=""int"">0</Timestamp><DateUtc dt:dt=""string"">2023-03-21T11:49:28Z</DateUtc></StartTime><FrequencyChanges><FrequencyChange><Frequency dt:dt=""r8"">3312841</Frequency><Timestamp dt:dt=""r8"">20108245833</Timestamp><Current dt:dt=""r8"">0</Current><DateUtc dt:dt=""string"">2023-03-21T11:49:28Z</DateUtc></FrequencyChange></FrequencyChanges></Clock>\n";TMS_Ibrahim-48-4;75.029;1.0.0.561;1; ;-1365958707;2.0.10.242;2.0.10.242;03-21-2023;21/03/2023 11:49;12:49:28;2.0.10.147;0;;-999999;21;19289;0;1;1620;20909;1;1;1;2;1;0;1;BlockProcFischi;BlockList;1;75;0;;-999999;13;23216;0;1;1117;24333;1;1;1;1;ProcFischi1;ListBlockFischi;13;1;1;0;0;5;Po5_B;200;4;ug;5;2;57;1;13;4;1;TrialProc;3014;978;Po5_B;32;1439;1472;ListFischi1;0;;2;203;125471;12;15;1467;126938;395;1;1467;1;661;203;1072;1;1
TMS_Ibrahim;48;4;"<?xml version=""1.0""?>\n<Clock xmlns:dt=""urn:schemas-microsoft-com:datatypes""><Description dt:dt=""string"">E-Prime Primary Realtime Clock</Description><StartTime><Timestamp dt:dt=""int"">0</Timestamp><DateUtc dt:dt=""string"">2023-03-21T11:49:28Z</DateUtc></StartTime><FrequencyChanges><FrequencyChange><Frequency dt:dt=""r8"">3312841</Frequency><Timestamp dt:dt=""r8"">20108245833</Timestamp><Current dt:dt=""r8"">0</Current><DateUtc dt:dt=""string"">2023-03-21T11:49:28Z</DateUtc></FrequencyChange></FrequencyChanges></Clock>\n";TMS_Ibrahim-48-4;75.029;1.0.0.561;1; ;-1365958707;2.0.10.242;2.0.10.242;03-21-2023;21/03/2023 11:49;12:49:28;2.0.10.147;0;;-999999;21;19289;0;1;1620;20909;1;1;1;2;1;0;1;BlockProcFischi;BlockList;1;75;0;;-999999;13;23216;0;1;1117;24333;1;1;1;1;ProcFischi1;ListBlockFischi;14;1;1;0;0;5;Po2_B;175;4;ug;5;2;49;1;14;4;1;TrialProc;1890;1580;Po2_B;183;1625;1808;ListFischi1;0;;2;201;133013;14;15;1653;134666;405;1;1653;1;806;254;1248;1;1
TMS_Ibrahim;48;4;"<?xml version=""1.0""?>\n<Clock xmlns:dt=""urn:schemas-microsoft-com:datatypes""><Description dt:dt=""string"">E-Prime Primary Realtime Clock</Description><StartTime><Timestamp dt:dt=""int"">0</Timestamp><DateUtc dt:dt=""string"">2023-03-21T11:49:28Z</DateUtc></StartTime><FrequencyChanges><FrequencyChange><Frequency dt:dt=""r8"">3312841</Frequency><Timestamp dt:dt=""r8"">20108245833</Timestamp><Current dt:dt=""r8"">0</Current><DateUtc dt:dt=""string"">2023-03-21T11:49:28Z</DateUtc></FrequencyChange></FrequencyChanges></Clock>\n";TMS_Ibrahim-48-4;75.029;1.0.0.561;1; ;-1365958707;2.0.10.242;2.0.10.242;03-21-2023;21/03/2023 11:49;12:49:28;2.0.10.147;0;;-999999;21;19289;0;1;1620;20909;1;1;1;2;1;0;1;BlockProcFischi;BlockList;1;75;0;;-999999;13;23216;0;1;1117;24333;1;1;1;1;ProcFischi1;ListBlockFischi;15;1;2;0;0;5;Pr2_B;175;1;op;5;2;11;1;15;1;0;TrialProc;759;711;Pr2_B;130;1373;1242;ListFischi1;0;;2;203;141600;10;15;1402;143002;474;1;1402;1;727;509;928;1;1
TMS_Ibrahim;48;4;"<?xml version=""1.0""?>\n<Clock xmlns:dt=""urn:schemas-microsoft-com:datatypes""><Description dt:dt=""string"">E-Prime Primary Realtime Clock</Description><StartTime><Timestamp dt:dt=""int"">0</Timestamp><DateUtc dt:dt=""string"">2023-03-21T11:49:28Z</DateUtc></StartTime><FrequencyChanges><FrequencyChange><Frequency dt:dt=""r8"">3312841</Frequency><Timestamp dt:dt=""r8"">20108245833</Timestamp><Current dt:dt=""r8"">0</Current><DateUtc dt:dt=""string"">2023-03-21T11:49:28Z</DateUtc></FrequencyChange></FrequencyChanges></Clock>\n";TMS_Ibrahim-48-4;75.029;1.0.0.561;1; ;-1365958707;2.0.10.242;2.0.10.242;03-21-2023;21/03/2023 11:49;12:49:28;2.0.10.147;0;;-999999;21;19289;0;1;1620;20909;1;1;1;2;1;0;1;BlockProcFischi;BlockList;1;75;0;;-999999;13;23216;0;1;1117;24333;1;1;1;1;ProcFischi1;ListBlockFischi;16;1;2;0;0;3;Pr4_B;175;3;ug;3;2;29;1;16;3;1;TrialProc;2691;677;Pr4_B;42;1209;1251;ListFischi1;0;;2;201;149018;16;13;1232;150250;368;1;1232;1;806;267;864;1;1
TMS_Ibrahim;48;4;"<?xml version=""1.0""?>\n<Clock xmlns:dt=""urn:schemas-microsoft-com:datatypes""><Description dt:dt=""string"">E-Prime Primary Realtime Clock</Description><StartTime><Timestamp dt:dt=""int"">0</Timestamp><DateUtc dt:dt=""string"">2023-03-21T11:49:28Z</DateUtc></StartTime><FrequencyChanges><FrequencyChange><Frequency dt:dt=""r8"">3312841</Frequency><Timestamp dt:dt=""r8"">20108245833</Timestamp><Current dt:dt=""r8"">0</Current><DateUtc dt:dt=""string"">2023-03-21T11:49:28Z</DateUtc></FrequencyChange></FrequencyChanges></Clock>\n";TMS_Ibrahim-48-4;75.029;1.0.0.561;1; ;-1365958707;2.0.10.242;2.0.10.242;03-21-2023;21/03/2023 11:49;12:49:28;2.0.10.147;0;;-999999;21;19289;0;1;1620;20909;1;1;1;2;1;0;1;BlockProcFischi;BlockList;1;75;0;;-999999;13;23216;0;1;1117;24333;1;1;1;1;ProcFischi1;ListBlockFischi;17;1;1;0;0;3;Po2_B;225;2;op;3;2;43;1;17;2;0;TrialProc;2277;1580;Po2_B;269;1537;1806;ListFischi1;0;;2;203;157124;13;1333;2645;159769;758;1;1558;1;854;468;800;1;1
TMS_Ibrahim;48;4;"<?xml version=""1.0""?>\n<Clock xmlns:dt=""urn:schemas-microsoft-com:datatypes""><Description dt:dt=""string"">E-Prime Primary Realtime Clock</Description><StartTime><Timestamp dt:dt=""int"">0</Timestamp><DateUtc dt:dt=""string"">2023-03-21T11:49:28Z</DateUtc></StartTime><FrequencyChanges><FrequencyChange><Frequency dt:dt=""r8"">3312841</Frequency><Timestamp dt:dt=""r8"">20108245833</Timestamp><Current dt:dt=""r8"">0</Current><DateUtc dt:dt=""string"">2023-03-21T11:49:28Z</DateUtc></FrequencyChange></FrequencyChanges></Clock>\n";TMS_Ibrahim-48-4;75.029;1.0.0.561;1; ;-1365958707;2.0.10.242;2.0.10.242;03-21-2023;21/03/2023 11:49;12:49:28;2.0.10.147;0;;-999999;21;19289;0;1;1620;20909;1;1;1;2;1;0;1;BlockProcFischi;BlockList;1;75;0;;-999999;13;23216;0;1;1117;24333;1;1;1;1;ProcFischi1;ListBlockFischi;18;1;2;1;0;5;Prmod_B;150;1;op;5;2;15;1;18;1;0;TrialProc;2680;1310;Prmod_B;103;1541;1644;ListFischi1;0;;2;201;164071;10;155;2770;166841;402;1;1570;1;400;403;1168;1;1
TMS_Ibrahim;48;4;"<?xml version=""1.0""?>\n<Clock xmlns:dt=""urn:schemas-microsoft-com:datatypes""><Description dt:dt=""string"">E-Prime Primary Realtime Clock</Description><StartTime><Timestamp dt:dt=""int"">0</Timestamp><DateUtc dt:dt=""string"">2023-03-21T11:49:28Z</DateUtc></StartTime><FrequencyChanges><FrequencyChange><Frequency dt:dt=""r8"">3312841</Frequency><Timestamp dt:dt=""r8"">20108245833</Timestamp><Current dt:dt=""r8"">0</Current><DateUtc dt:dt=""string"">2023-03-21T11:49:28Z</DateUtc></FrequencyChange></FrequencyChanges></Clock>\n";TMS_Ibrahim-48-4;75.029;1.0.0.561;1; ;-1365958707;2.0.10.242;2.0.10.242;03-21-2023;21/03/2023 11:49;12:49:28;2.0.10.147;0;;-999999;21;19289;0;1;1620;20909;1;1;1;2;1;0;1;BlockProcFischi;BlockList;1;75;0;;-999999;13;23216;0;1;1117;24333;1;1;1;1;ProcFischi1;ListBlockFischi;19;1;1;0;0;5;Po4_B;175;4;ug;5;2;51;1;19;4;1;TrialProc;1604;1335;Po4_B;264;1444;1708;ListFischi1;0;;2;203;172350;8;15;1467;173817;443;1;1467;1;872;510;1024;1;1
TMS_Ibrahim;48;4;"<?xml version=""1.0""?>\n<Clock xmlns:dt=""urn:schemas-microsoft-com:datatypes""><Description dt:dt=""string"">E-Prime Primary Realtime Clock</Description><StartTime><Timestamp dt:dt=""int"">0</Timestamp><DateUtc dt:dt=""string"">2023-03-21T11:49:28Z</DateUtc></StartTime><FrequencyChanges><FrequencyChange><Frequency dt:dt=""r8"">3312841</Frequency><Timestamp dt:dt=""r8"">20108245833</Timestamp><Current dt:dt=""r8"">0</Current><DateUtc dt:dt=""string"">2023-03-21T11:49:28Z</DateUtc></FrequencyChange></FrequencyChanges></Clock>\n";TMS_Ibrahim-48-4;75.029;1.0.0.561;1; ;-1365958707;2.0.10.242;2.0.10.242;03-21-2023;21/03/2023 11:49;12:49:28;2.0.10.147;0;;-999999;21;19289;0;1;1620;20909;1;1;1;2;1;0;1;BlockProcFischi;BlockList;1;75;0;;-999999;13;23216;0;1;1117;24333;1;1;1;1;ProcFischi1;ListBlockFischi;20;1;1;0;1;3;Po3_B;225;2;op;3;2;44;1;20;2;0;TrialProc;2967;1311;Po3_B;550;2127;1578;ListFischi1;0;;2;203;181064;11;131;4625;185689;449;1;2161;1;1541;228;1712;1;1
TMS_Ibrahim;48;4;"<?xml version=""1.0""?>\n<Clock xmlns:dt=""urn:schemas-microsoft-com:datatypes""><Description dt:dt=""string"">E-Prime Primary Realtime Clock</Description><StartTime><Timestamp dt:dt=""int"">0</Timestamp><DateUtc dt:dt=""string"">2023-03-21T11:49:28Z</DateUtc></StartTime><FrequencyChanges><FrequencyChange><Frequency dt:dt=""r8"">3312841</Frequency><Timestamp dt:dt=""r8"">20108245833</Timestamp><Current dt:dt=""r8"">0</Current><DateUtc dt:dt=""string"">2023-03-21T11:49:28Z</DateUtc></FrequencyChange></FrequencyChanges></Clock>\n";TMS_Ibrahim-48-4;75.029;1.0.0.561;1; ;-1365958707;2.0.10.242;2.0.10.242;03-21-2023;21/03/2023 11:49;12:49:28;2.0.10.147;0;;-999999;21;19289;0;1;1620;20909;1;1;1;2;1;0;1;BlockProcFischi;BlockList;1;75;0;;-999999;13;23216;0;1;1117;24333;1;1;1;1;ProcFischi1;ListBlockFischi;21;1;1;0;2;3;Po5_B;225;2;op;3;2;46;1;21;2;0;TrialProc;1842;979;Po5_B;33;1504;1472;ListFischi1;0;;2;203;189552;13;13;1529;191081;473;1;1529;1;606;481;1056;1;1
TMS_Ibrahim;48;4;"<?xml version=""1.0""?>\n<Clock xmlns:dt=""urn:schemas-microsoft-com:datatypes""><Description dt:dt=""string"">E-Prime Primary Realtime Clock</Description><StartTime><Timestamp dt:dt=""int"">0</Timestamp><DateUtc dt:dt=""string"">2023-03-21T11:49:28Z</DateUtc></StartTime><FrequencyChanges><FrequencyChange><Frequency dt:dt=""r8"">3312841</Frequency><Timestamp dt:dt=""r8"">20108245833</Timestamp><Current dt:dt=""r8"">0</Current><DateUtc dt:dt=""string"">2023-03-21T11:49:28Z</DateUtc></FrequencyChange></FrequencyChanges></Clock>\n";TMS_Ibrahim-48-4;75.029;1.0.0.561;1; ;-1365958707;2.0.10.242;2.0.10.242;03-21-2023;21/03/2023 11:49;12:49:28;2.0.10.147;0;;-999999;21;19289;0;1;1620;20909;1;1;1;2;1;0;1;BlockProcFischi;BlockList;1;75;0;;-999999;13;23216;0;1;1117;24333;1;1;1;1;ProcFischi1;ListBlockFischi;22;1;2;0;0;5;Pr3_B;125;1;op;5;2;7;1;22;1;0;TrialProc;1987;716;Pr3_B;59;1657;1715;ListFischi1;0;;2;201;197135;14;15;1690;198825;410;1;1690;1;363;600;1280;1;1
TMS_Ibrahim;48;4;"<?xml version=""1.0""?>\n<Clock xmlns:dt=""urn:schemas-microsoft-com:datatypes""><Description dt:dt=""string"">E-Prime Primary Realtime Clock</Description><StartTime><Timestamp dt:dt=""int"">0</Timestamp><DateUtc dt:dt=""string"">2023-03-21T11:49:28Z</DateUtc></StartTime><FrequencyChanges><FrequencyChange><Frequency dt:dt=""r8"">3312841</Frequency><Timestamp dt:dt=""r8"">20108245833</Timestamp><Current dt:dt=""r8"">0</Current><DateUtc dt:dt=""string"">2023-03-21T11:49:28Z</DateUtc></FrequencyChange></FrequencyChanges></Clock>\n";TMS_Ibrahim-48-4;75.029;1.0.0.561;1; ;-1365958707;2.0.10.242;2.0.10.242;03-21-2023;21/03/2023 11:49;12:49:28;2.0.10.147;0;;-999999;21;19289;0;1;1620;20909;1;1;1;2;1;0;1;BlockProcFischi;BlockList;1;75;0;;-999999;13;23216;0;1;1117;24333;1;1;1;1;ProcFischi1;ListBlockFischi;23;1;2;0;0;5;Pr4_B;100;1;op;5;2;8;1;23;1;0;TrialProc;2061;668;Pr4_B;85;1325;1241;ListFischi1;0;;2;203;205230;9;15;1354;206584;347;1;1354;1;888;222;1007;1;1
TMS_Ibrahim;48;4;"<?xml version=""1.0""?>\n<Clock xmlns:dt=""urn:schemas-microsoft-com:datatypes""><Description dt:dt=""string"">E-Prime Primary Realtime Clock</Description><StartTime><Timestamp dt:dt=""int"">0</Timestamp><DateUtc dt:dt=""string"">2023-03-21T11:49:28Z</DateUtc></StartTime><FrequencyChanges><FrequencyChange><Frequency dt:dt=""r8"">3312841</Frequency><Timestamp dt:dt=""r8"">20108245833</Timestamp><Current dt:dt=""r8"">0</Current><DateUtc dt:dt=""string"">2023-03-21T11:49:28Z</DateUtc></FrequencyChange></FrequencyChanges></Clock>\n";TMS_Ibrahim-48-4;75.029;1.0.0.561;1; ;-1365958707;2.0.10.242;2.0.10.242;03-21-2023;21/03/2023 11:49;12:49:28;2.0.10.147;0;;-999999;21;19289;0;1;1620;20909;1;1;1;2;1;0;1;BlockProcFischi;BlockList;1;75;0;;-999999;13;23216;0;1;1117;24333;1;1;1;1;ProcFischi1;ListBlockFischi;24;1;1;0;1;5;Po3_B;175;4;ug;5;2;60;1;24;4;1;TrialProc;2101;1307;Po3_B;175;1398;1573;ListFischi1;0;;2;203;212909;7;15;1419;214328;443;1;1419;1;836;439;976;1;1
TMS_Ibrahim;48;4;"<?xml version=""1.0""?>\n<Clock xmlns:dt=""urn:schemas-microsoft-com:datatypes""><Description dt:dt=""string"">E-Prime Primary Realtime Clock</Description><StartTime><Timestamp dt:dt=""int"">0</Timestamp><DateUtc dt:dt=""string"">2023-03-21T11:49:28Z</DateUtc></StartTime><FrequencyChanges><FrequencyChange><Frequency dt:dt=""r8"">3312841</Frequency><Timestamp dt:dt=""r8"">20108245833</Timestamp><Current dt:dt=""r8"">0</Current><DateUtc dt:dt=""string"">2023-03-21T11:49:28Z</DateUtc></FrequencyChange></FrequencyChanges></Clock>\n";TMS_Ibrahim-48-4;75.029;1.0.0.561;1; ;-1365958707;2.0.10.242;2.0.10.242;03-21-2023;21/03/2023 11:49;12:49:28;2.0.10.147;0;;-999999;21;19289;0;1;1620;20909;1;1;1;2;1;0;1;BlockProcFischi;BlockList;1;75;0;;-999999;13;23216;0;1;1117;24333;1;1;1;1;ProcFischi1;ListBlockFischi;25;1;1;0;0;3;Po8_B;200;2;op;3;2;37;1;25;2;0;TrialProc;1281;1248;Po8_B;252;1329;1580;ListFischi1;0;;2;201;220713;14;13;1359;222072;399;1;1359;1;607;537;960;1;1
TMS_Ibrahim;48;4;"<?xml version=""1.0""?>\n<Clock xmlns:dt=""urn:schemas-microsoft-com:datatypes""><Description dt:dt=""string"">E-Prime Primary Realtime Clock</Description><StartTime><Timestamp dt:dt=""int"">0</Timestamp><DateUtc dt:dt=""string"">2023-03-21T11:49:28Z</DateUtc></StartTime><FrequencyChanges><FrequencyChange><Frequency dt:dt=""r8"">3312841</Frequency><Timestamp dt:dt=""r8"">20108245833</Timestamp><Current dt:dt=""r8"">0</Current><DateUtc dt:dt=""string"">2023-03-21T11:49:28Z</DateUtc></FrequencyChange></FrequencyChanges></Clock>\n";TMS_Ibrahim-48-4;75.029;1.0.0.561;1; ;-1365958707;2.0.10.242;2.0.10.242;03-21-2023;21/03/2023 11:49;12:49:28;2.0.10.147;0;;-999999;21;19289;0;1;1620;20909;1;1;1;2;1;0;1;BlockProcFischi;BlockList;1;75;0;;-999999;13;23216;0;1;1117;24333;1;1;1;1;ProcFischi1;ListBlockFischi;26;1;2;0;0;3;Pr5_B;150;3;ug;3;2;20;1;26;3;1;TrialProc;1300;669;Pr5_B;98;1368;1270;ListFischi1;0;;2;203;228581;9;13;1395;229976;355;1;1395;1;1043;320;1040;1;1
TMS_Ibrahim;48;4;"<?xml version=""1.0""?>\n<Clock xmlns:dt=""urn:schemas-microsoft-com:datatypes""><Description dt:dt=""string"">E-Prime Primary Realtime Clock</Description><StartTime><Timestamp dt:dt=""int"">0</Timestamp><DateUtc dt:dt=""string"">2023-03-21T11:49:28Z</DateUtc></StartTime><FrequencyChanges><FrequencyChange><Frequency dt:dt=""r8"">3312841</Frequency><Timestamp dt:dt=""r8"">20108245833</Timestamp><Current dt:dt=""r8"">0</Current><DateUtc dt:dt=""string"">2023-03-21T11:49:28Z</DateUtc></FrequencyChange></FrequencyChanges></Clock>\n";TMS_Ibrahim-48-4;75.029;1.0.0.561;1; ;-1365958707;2.0.10.242;2.0.10.242;03-21-2023;21/03/2023 11:49;12:49:28;2.0.10.147;0;;-999999;21;19289;0;1;1620;20909;1;1;1;2;1;0;1;BlockProcFischi;BlockList;1;75;0;;-999999;13;23216;0;1;1117;24333;1;1;1;1;ProcFischi1;ListBlockFischi;27;1;2;0;0;5;Pr5_B;100;1;op;5;2;9;1;27;1;0;TrialProc;2322;670;Pr5_B;120;1390;1270;ListFischi1;0;;3;201;235737;11;15;1423;237160;351;1;1423;1;615;226;1072;1;1
TMS_Ibrahim;48;4;"<?xml version=""1.0""?>\n<Clock xmlns:dt=""urn:schemas-microsoft-com:datatypes""><Description dt:dt=""string"">E-Prime Primary Realtime Clock</Description><StartTime><Timestamp dt:dt=""int"">0</Timestamp><DateUtc dt:dt=""string"">2023-03-21T11:49:28Z</DateUtc></StartTime><FrequencyChanges><FrequencyChange><Frequency dt:dt=""r8"">3312841</Frequency><Timestamp dt:dt=""r8"">20108245833</Timestamp><Current dt:dt=""r8"">0</Current><DateUtc dt:dt=""string"">2023-03-21T11:49:28Z</DateUtc></FrequencyChange></FrequencyChanges></Clock>\n";TMS_Ibrahim-48-4;75.029;1.0.0.561;1; ;-1365958707;2.0.10.242;2.0.10.242;03-21-2023;21/03/2023 11:49;12:49:28;2.0.10.147;0;;-999999;21;19289;0;1;1620;20909;1;1;1;2;1;0;1;BlockProcFischi;BlockList;1;75;0;;-999999;13;23216;0;1;1117;24333;1;1;1;1;ProcFischi1;ListBlockFischi;28;1;1;0;1;3;Po4_B;200;2;op;3;2;45;1;28;2;0;TrialProc;3603;1337;Po4_B;359;1350;1710;ListFischi1;0;;2;203;243267;11;13;1381;244648;277;1;1381;1;234;330;1104;1;1
TMS_Ibrahim;48;4;"<?xml version=""1.0""?>\n<Clock xmlns:dt=""urn:schemas-microsoft-com:datatypes""><Description dt:dt=""string"">E-Prime Primary Realtime Clock</Description><StartTime><Timestamp dt:dt=""int"">0</Timestamp><DateUtc dt:dt=""string"">2023-03-21T11:49:28Z</DateUtc></StartTime><FrequencyChanges><FrequencyChange><Frequency dt:dt=""r8"">3312841</Frequency><Timestamp dt:dt=""r8"">20108245833</Timestamp><Current dt:dt=""r8"">0</Current><DateUtc dt:dt=""string"">2023-03-21T11:49:28Z</DateUtc></FrequencyChange></FrequencyChanges></Clock>\n";TMS_Ibrahim-48-4;75.029;1.0.0.561;1; ;-1365958707;2.0.10.242;2.0.10.242;03-21-2023;21/03/2023 11:49;12:49:28;2.0.10.147;0;;-999999;21;19289;0;1;1620;20909;1;1;1;2;1;0;1;BlockProcFischi;BlockList;1;75;0;;-999999;13;23216;0;1;1117;24333;1;1;1;1;ProcFischi1;ListBlockFischi;29;1;2;0;0;3;Pr3_B;125;3;ug;3;2;18;1;29;3;1;TrialProc;3732;714;Pr3_B;55;1658;1714;ListFischi1;0;;2;203;251515;13;13;1692;253207;476;1;1692;1;417;432;1216;1;1
TMS_Ibrahim;48;4;"<?xml version=""1.0""?>\n<Clock xmlns:dt=""urn:schemas-microsoft-com:datatypes""><Description dt:dt=""string"">E-Prime Primary Realtime Clock</Description><StartTime><Timestamp dt:dt=""int"">0</Timestamp><DateUtc dt:dt=""string"">2023-03-21T11:49:28Z</DateUtc></StartTime><FrequencyChanges><FrequencyChange><Frequency dt:dt=""r8"">3312841</Frequency><Timestamp dt:dt=""r8"">20108245833</Timestamp><Current dt:dt=""r8"">0</Current><DateUtc dt:dt=""string"">2023-03-21T11:49:28Z</DateUtc></FrequencyChange></FrequencyChanges></Clock>\n";TMS_Ibrahim-48-4;75.029;1.0.0.561;1; ;-1365958707;2.0.10.242;2.0.10.242;03-21-2023;21/03/2023 11:49;12:49:28;2.0.10.147;0;;-999999;21;19289;0;1;1620;20909;1;1;1;2;1;0;1;BlockProcFischi;BlockList;1;75;0;;-999999;13;23216;0;1;1117;24333;1;1;1;1;ProcFischi1;ListBlockFischi;30;1;2;1;0;3;Prmod_B;100;3;ug;3;2;31;1;30;3;1;TrialProc;2890;1313;Prmod_B;167;1813;1646;ListFischi1;0;;2;201;259045;14;13;1842;260887;418;1;1842;1;1034;295;1424;1;1
TMS_Ibrahim;48;4;"<?xml version=""1.0""?>\n<Clock xmlns:dt=""urn:schemas-microsoft-com:datatypes""><Description dt:dt=""string"">E-Prime Primary Realtime Clock</Description><StartTime><Timestamp dt:dt=""int"">0</Timestamp><DateUtc dt:dt=""string"">2023-03-21T11:49:28Z</DateUtc></StartTime><FrequencyChanges><FrequencyChange><Frequency dt:dt=""r8"">3312841</Frequency><Timestamp dt:dt=""r8"">20108245833</Timestamp><Current dt:dt=""r8"">0</Current><DateUtc dt:dt=""string"">2023-03-21T11:49:28Z</DateUtc></FrequencyChange></FrequencyChanges></Clock>\n";TMS_Ibrahim-48-4;75.029;1.0.0.561;1; ;-1365958707;2.0.10.242;2.0.10.242;03-21-2023;21/03/2023 11:49;12:49:28;2.0.10.147;0;;-999999;21;19289;0;1;1620;20909;1;1;1;2;1;0;1;BlockProcFischi;BlockList;1;75;0;;-999999;13;23216;0;1;1117;24333;1;1;1;1;ProcFischi1;ListBlockFischi;31;1;2;0;1;3;Pr3_B;100;3;ug;3;2;23;1;31;3;1;TrialProc;1753;706;Pr3_B;12;1719;1706;ListFischi1;0;;2;203;266848;8;13;1751;268599;375;1;1751;1;650;537;1376;1;1
TMS_Ibrahim;48;4;"<?xml version=""1.0""?>\n<Clock xmlns:dt=""urn:schemas-microsoft-com:datatypes""><Description dt:dt=""string"">E-Prime Primary Realtime Clock</Description><StartTime><Timestamp dt:dt=""int"">0</Timestamp><DateUtc dt:dt=""string"">2023-03-21T11:49:28Z</DateUtc></StartTime><FrequencyChanges><FrequencyChange><Frequency dt:dt=""r8"">3312841</Frequency><Timestamp dt:dt=""r8"">20108245833</Timestamp><Current dt:dt=""r8"">0</Current><DateUtc dt:dt=""string"">2023-03-21T11:49:28Z</DateUtc></FrequencyChange></FrequencyChanges></Clock>\n";TMS_Ibrahim-48-4;75.029;1.0.0.561;1; ;-1365958707;2.0.10.242;2.0.10.242;03-21-2023;21/03/2023 11:49;12:49:28;2.0.10.147;0;;-999999;21;19289;0;1;1620;20909;1;1;1;2;1;0;1;BlockProcFischi;BlockList;1;75;0;;-999999;13;23216;0;1;1117;24333;1;1;1;1;ProcFischi1;ListBlockFischi;32;1;2;0;0;3;Pr5_B;75;3;ug;3;2;30;1;32;3;1;TrialProc;1084;672;Pr5_B;257;1529;1272;ListFischi1;0;;2;203;275106;13;13;1557;276663;405;1;1557;1;740;368;1152;1;1
TMS_Ibrahim;48;4;"<?xml version=""1.0""?>\n<Clock xmlns:dt=""urn:schemas-microsoft-com:datatypes""><Description dt:dt=""string"">E-Prime Primary Realtime Clock</Description><StartTime><Timestamp dt:dt=""int"">0</Timestamp><DateUtc dt:dt=""string"">2023-03-21T11:49:28Z</DateUtc></StartTime><FrequencyChanges><FrequencyChange><Frequency dt:dt=""r8"">3312841</Frequency><Timestamp dt:dt=""r8"">20108245833</Timestamp><Current dt:dt=""r8"">0</Current><DateUtc dt:dt=""string"">2023-03-21T11:49:28Z</DateUtc></FrequencyChange></FrequencyChanges></Clock>\n";TMS_Ibrahim-48-4;75.029;1.0.0.561;1; ;-1365958707;2.0.10.242;2.0.10.242;03-21-2023;21/03/2023 11:49;12:49:28;2.0.10.147;0;;-999999;21;19289;0;1;1620;20909;1;1;1;2;1;0;1;BlockProcFischi;BlockList;1;75;0;;-999999;13;23216;0;1;1117;24333;1;1;1;1;ProcFischi1;ListBlockFischi;33;1;2;0;0;5;Pr3_B;100;1;op;5;2;2;1;33;1;0;TrialProc;1634;711;Pr3_B;98;1613;1711;ListFischi1;0;;2;203;283092;11;15;1635;284727;483;1;1635;1;343;412;1152;1;1
TMS_Ibrahim;48;4;"<?xml version=""1.0""?>\n<Clock xmlns:dt=""urn:schemas-microsoft-com:datatypes""><Description dt:dt=""string"">E-Prime Primary Realtime Clock</Description><StartTime><Timestamp dt:dt=""int"">0</Timestamp><DateUtc dt:dt=""string"">2023-03-21T11:49:28Z</DateUtc></StartTime><FrequencyChanges><FrequencyChange><Frequency dt:dt=""r8"">3312841</Frequency><Timestamp dt:dt=""r8"">20108245833</Timestamp><Current dt:dt=""r8"">0</Current><DateUtc dt:dt=""string"">2023-03-21T11:49:28Z</DateUtc></FrequencyChange></FrequencyChanges></Clock>\n";TMS_Ibrahim-48-4;75.029;1.0.0.561;1; ;-1365958707;2.0.10.242;2.0.10.242;03-21-2023;21/03/2023 11:49;12:49:28;2.0.10.147;0;;-999999;21;19289;0;1;1620;20909;1;1;1;2;1;0;1;BlockProcFischi;BlockList;1;75;0;;-999999;13;23216;0;1;1117;24333;1;1;1;1;ProcFischi1;ListBlockFischi;34;1;1;0;1;5;Po3_B;175;4;ug;5;2;55;1;34;4;1;TrialProc;1754;1311;Po3_B;66;1513;1578;ListFischi1;0;;2;201;290794;13;155;2508;293302;252;1;1548;1;1057;401;1296;1;1
TMS_Ibrahim;48;4;"<?xml version=""1.0""?>\n<Clock xmlns:dt=""urn:schemas-microsoft-com:datatypes""><Description dt:dt=""string"">E-Prime Primary Realtime Clock</Description><StartTime><Timestamp dt:dt=""int"">0</Timestamp><DateUtc dt:dt=""string"">2023-03-21T11:49:28Z</DateUtc></StartTime><FrequencyChanges><FrequencyChange><Frequency dt:dt=""r8"">3312841</Frequency><Timestamp dt:dt=""r8"">20108245833</Timestamp><Current dt:dt=""r8"">0</Current><DateUtc dt:dt=""string"">2023-03-21T11:49:28Z</DateUtc></FrequencyChange></FrequencyChanges></Clock>\n";TMS_Ibrahim-48-4;75.029;1.0.0.561;1; ;-1365958707;2.0.10.242;2.0.10.242;03-21-2023;21/03/2023 11:49;12:49:28;2.0.10.147;0;;-999999;21;19289;0;1;1620;20909;1;1;1;2;1;0;1;BlockProcFischi;BlockList;1;75;0;;-999999;13;23216;0;1;1117;24333;1;1;1;1;ProcFischi1;ListBlockFischi;35;0;2;0;0;5;Pr5_B;;1;op;3;2;4;1;35;1;0;TrialProc;1693;669;Pr5_B;141;1410;1268;ListFischi1;0;;2;203;297928;9;13;1438;299366;366;1;1438;1;685;526;1072;1;0
TMS_Ibrahim;48;4;"<?xml version=""1.0""?>\n<Clock xmlns:dt=""urn:schemas-microsoft-com:datatypes""><Description dt:dt=""string"">E-Prime Primary Realtime Clock</Description><StartTime><Timestamp dt:dt=""int"">0</Timestamp><DateUtc dt:dt=""string"">2023-03-21T11:49:28Z</DateUtc></StartTime><FrequencyChanges><FrequencyChange><Frequency dt:dt=""r8"">3312841</Frequency><Timestamp dt:dt=""r8"">20108245833</Timestamp><Current dt:dt=""r8"">0</Current><DateUtc dt:dt=""string"">2023-03-21T11:49:28Z</DateUtc></FrequencyChange></FrequencyChanges></Clock>\n";TMS_Ibrahim-48-4;75.029;1.0.0.561;1; ;-1365958707;2.0.10.242;2.0.10.242;03-21-2023;21/03/2023 11:49;12:49:28;2.0.10.147;0;;-999999;21;19289;0;1;1620;20909;1;1;1;2;1;0;1;BlockProcFischi;BlockList;1;75;0;;-999999;13;23216;0;1;1117;24333;1;1;1;1;ProcFischi1;ListBlockFischi;36;1;2;0;1;3;Pr3_B;75;3;ug;3;2;28;1;36;3;1;TrialProc;1124;713;Pr3_B;50;1662;1713;ListFischi1;0;;2;203;306121;13;133;2749;308870;621;1;1693;1;587;344;1072;1;1
