ExperimentName;Subject;Session;Clock.Information;DataFile.Basename;Display.RefreshRate;ExperimentVersion;Group;Name;RandomSeed;RuntimeVersion;RuntimeVersionExpected;SessionDate;SessionStartDateTimeUtc;SessionTime;StudioVersion;SyncEprimeKinB1.ACC;SyncEprimeKinB1.CRESP;SyncEprimeKinB1.DurationError;SyncEprimeKinB1.OnsetDelay;SyncEprimeKinB1.OnsetTime;SyncEprimeKinB1.OnsetToOnsetTime;SyncEprimeKinB1.RESP;SyncEprimeKinB1.RT;SyncEprimeKinB1.RTTime;Block;BlockINT_0Fischi_1Suoni;BlockList;BlockList.Cycle;BlockList.Sample;ContatoreSuoni;NumSuono;Procedure[Block];Running[Block];Suonilist;SuonoFinSoglia;SyncEprimeKinFischi1.ACC;SyncEprimeKinFischi1.CRESP;SyncEprimeKinFischi1.DurationError;SyncEprimeKinFischi1.OnsetDelay;SyncEprimeKinFischi1.OnsetTime;SyncEprimeKinFischi1.OnsetToOnsetTime;SyncEprimeKinFischi1.RESP;SyncEprimeKinFischi1.RT;SyncEprimeKinFischi1.RTTime;Trial;ListBlockFischi;ListBlockFischi.Cycle;ListBlockFischi.Sample;Procedure[Trial];Running[Trial];SubTrial;AccSogg1;Avatar_Giu1_Su2;CatchTrial_CORR;ContatoreFinestraSoglia;CorrectResponse;File_Name;FinestraSoglia;IdcondEEG;Istruzione;KeySoggetto1;KeySoggetto2;ListFischi1;ListFischi1.Cycle;ListFischi1.Sample;NumeroSuono;OP_UG;Procedure[SubTrial];Resoconto.RT;RTChange;RTimage;RTNetto;RTSubj;RTTouch;Running[SubTrial];StartGo.ACC;StartGo.CRESP;StartGo.DurationError;StartGo.OnsetDelay;StartGo.OnsetTime;StartGo.OnsetToOnsetTime;StartGo.RESP;StartGo.RT;StartGo.RTTime;StartSoggetto1;StartSoggetto2;StopSoggetto1;StopSoggetto2;StopTrial.RT;tempo;TMSoggetto1;ValiditaTrial;Vincitore
TMS_Ibrahim;49;1;"<?xml version=""1.0""?>\n<Clock xmlns:dt=""urn:schemas-microsoft-com:datatypes""><Description dt:dt=""string"">E-Prime Primary Realtime Clock</Description><StartTime><Timestamp dt:dt=""int"">0</Timestamp><DateUtc dt:dt=""string"">2023-03-23T10:14:40Z</DateUtc></StartTime><FrequencyChanges><FrequencyChange><Frequency dt:dt=""r8"">3312841</Frequency><Timestamp dt:dt=""r8"">21526889916</Timestamp><Current dt:dt=""r8"">0</Current><DateUtc dt:dt=""string"">2023-03-23T10:14:40Z</DateUtc></FrequencyChange></FrequencyChanges></Clock>\n";TMS_Ibrahim-49-1;75.029;1.0.0.561;1;;52680712;2.0.10.242;2.0.10.242;03-23-2023;23/03/2023 10:14;11:14:40;2.0.10.147;0;;-999999;22;25449;0;1;1218;26667;1;1;1;2;1;0;1;BlockProcFischi;BlockList;1;125;0;;-999999;32;28551;0;1;1232;29783;1;1;1;1;ProcFischi1;ListBlockFischi;1;1;1;0;0;3;Po3_B;250;2;op;3;2;34;1;1;2;0;TrialProc;2389;1331;Po3_B;100;1499;1599;ListFischi1;0;;5;210;32491;19;133;1620;34111;613;1;1525;1;538;541;912;1;1
TMS_Ibrahim;49;1;"<?xml version=""1.0""?>\n<Clock xmlns:dt=""urn:schemas-microsoft-com:datatypes""><Description dt:dt=""string"">E-Prime Primary Realtime Clock</Description><StartTime><Timestamp dt:dt=""int"">0</Timestamp><DateUtc dt:dt=""string"">2023-03-23T10:14:40Z</DateUtc></StartTime><FrequencyChanges><FrequencyChange><Frequency dt:dt=""r8"">3312841</Frequency><Timestamp dt:dt=""r8"">21526889916</Timestamp><Current dt:dt=""r8"">0</Current><DateUtc dt:dt=""string"">2023-03-23T10:14:40Z</DateUtc></FrequencyChange></FrequencyChanges></Clock>\n";TMS_Ibrahim-49-1;75.029;1.0.0.561;1;;52680712;2.0.10.242;2.0.10.242;03-23-2023;23/03/2023 10:14;11:14:40;2.0.10.147;0;;-999999;22;25449;0;1;1218;26667;1;1;1;2;1;0;1;BlockProcFischi;BlockList;1;125;0;;-999999;32;28551;0;1;1232;29783;1;1;1;1;ProcFischi1;ListBlockFischi;2;1;2;0;0;3;Pr5_B;250;3;ug;3;2;20;1;2;3;1;TrialProc;1983;672;Pr5_B;14;1285;1272;ListFischi1;0;;2;201;40204;10;13;1315;41519;323;1;1315;1;593;354;992;1;1
TMS_Ibrahim;49;1;"<?xml version=""1.0""?>\n<Clock xmlns:dt=""urn:schemas-microsoft-com:datatypes""><Description dt:dt=""string"">E-Prime Primary Realtime Clock</Description><StartTime><Timestamp dt:dt=""int"">0</Timestamp><DateUtc dt:dt=""string"">2023-03-23T10:14:40Z</DateUtc></StartTime><FrequencyChanges><FrequencyChange><Frequency dt:dt=""r8"">3312841</Frequency><Timestamp dt:dt=""r8"">21526889916</Timestamp><Current dt:dt=""r8"">0</Current><DateUtc dt:dt=""string"">2023-03-23T10:14:40Z</DateUtc></FrequencyChange></FrequencyChanges></Clock>\n";TMS_Ibrahim-49-1;75.029;1.0.0.561;1;;52680712;2.0.10.242;2.0.10.242;03-23-2023;23/03/2023 10:14;11:14:40;2.0.10.147;0;;-999999;22;25449;0;1;1218;26667;1;1;1;2;1;0;1;BlockProcFischi;BlockList;1;125;0;;-999999;32;28551;0;1;1232;29783;1;1;1;1;ProcFischi1;ListBlockFischi;3;1;2;0;0;3;Pr8_B;225;3;ug;3;2;26;1;3;3;1;TrialProc;3373;717;Pr8_B;224;1521;1744;ListFischi1;0;;2;203;47329;15;13;1550;48879;222;1;1550;1;437;266;1328;1;1
TMS_Ibrahim;49;1;"<?xml version=""1.0""?>\n<Clock xmlns:dt=""urn:schemas-microsoft-com:datatypes""><Description dt:dt=""string"">E-Prime Primary Realtime Clock</Description><StartTime><Timestamp dt:dt=""int"">0</Timestamp><DateUtc dt:dt=""string"">2023-03-23T10:14:40Z</DateUtc></StartTime><FrequencyChanges><FrequencyChange><Frequency dt:dt=""r8"">3312841</Frequency><Timestamp dt:dt=""r8"">21526889916</Timestamp><Current dt:dt=""r8"">0</Current><DateUtc dt:dt=""string"">2023-03-23T10:14:40Z</DateUtc></FrequencyChange></FrequencyChanges></Clock>\n";TMS_Ibrahim-49-1;75.029;1.0.0.561;1;;52680712;2.0.10.242;2.0.10.242;03-23-2023;23/03/2023 10:14;11:14:40;2.0.10.147;0;;-999999;22;25449;0;1;1218;26667;1;1;1;2;1;0;1;BlockProcFischi;BlockList;1;125;0;;-999999;32;28551;0;1;1232;29783;1;1;1;1;ProcFischi1;ListBlockFischi;4;1;2;0;0;3;Pr3_B;225;3;ug;3;2;18;1;4;3;1;TrialProc;2497;721;Pr3_B;146;1574;1720;ListFischi1;0;;3;203;56095;19;13;1600;57695;2;1;1600;1;1353;324;1598;1;1
TMS_Ibrahim;49;1;"<?xml version=""1.0""?>\n<Clock xmlns:dt=""urn:schemas-microsoft-com:datatypes""><Description dt:dt=""string"">E-Prime Primary Realtime Clock</Description><StartTime><Timestamp dt:dt=""int"">0</Timestamp><DateUtc dt:dt=""string"">2023-03-23T10:14:40Z</DateUtc></StartTime><FrequencyChanges><FrequencyChange><Frequency dt:dt=""r8"">3312841</Frequency><Timestamp dt:dt=""r8"">21526889916</Timestamp><Current dt:dt=""r8"">0</Current><DateUtc dt:dt=""string"">2023-03-23T10:14:40Z</DateUtc></FrequencyChange></FrequencyChanges></Clock>\n";TMS_Ibrahim-49-1;75.029;1.0.0.561;1;;52680712;2.0.10.242;2.0.10.242;03-23-2023;23/03/2023 10:14;11:14:40;2.0.10.147;0;;-999999;22;25449;0;1;1218;26667;1;1;1;2;1;0;1;BlockProcFischi;BlockList;1;125;0;;-999999;32;28551;0;1;1232;29783;1;1;1;1;ProcFischi1;ListBlockFischi;5;1;2;0;0;5;Pr3_B;250;1;op;5;2;2;1;5;1;0;TrialProc;2832;713;Pr3_B;70;1783;1712;ListFischi1;0;;2;203;65261;10;15;1810;67071;194;1;1810;1;1564;597;1616;1;1
TMS_Ibrahim;49;1;"<?xml version=""1.0""?>\n<Clock xmlns:dt=""urn:schemas-microsoft-com:datatypes""><Description dt:dt=""string"">E-Prime Primary Realtime Clock</Description><StartTime><Timestamp dt:dt=""int"">0</Timestamp><DateUtc dt:dt=""string"">2023-03-23T10:14:40Z</DateUtc></StartTime><FrequencyChanges><FrequencyChange><Frequency dt:dt=""r8"">3312841</Frequency><Timestamp dt:dt=""r8"">21526889916</Timestamp><Current dt:dt=""r8"">0</Current><DateUtc dt:dt=""string"">2023-03-23T10:14:40Z</DateUtc></FrequencyChange></FrequencyChanges></Clock>\n";TMS_Ibrahim-49-1;75.029;1.0.0.561;1;;52680712;2.0.10.242;2.0.10.242;03-23-2023;23/03/2023 10:14;11:14:40;2.0.10.147;0;;-999999;22;25449;0;1;1218;26667;1;1;1;2;1;0;1;BlockProcFischi;BlockList;1;125;0;;-999999;32;28551;0;1;1232;29783;1;1;1;1;ProcFischi1;ListBlockFischi;6;1;2;0;0;3;Pr2_B;200;3;ug;3;2;27;1;6;3;1;TrialProc;2876;717;Pr2_B;17;1266;1249;ListFischi1;0;;2;203;73948;13;13;1298;75246;211;1;1298;1;2278;262;1087;1;1
TMS_Ibrahim;49;1;"<?xml version=""1.0""?>\n<Clock xmlns:dt=""urn:schemas-microsoft-com:datatypes""><Description dt:dt=""string"">E-Prime Primary Realtime Clock</Description><StartTime><Timestamp dt:dt=""int"">0</Timestamp><DateUtc dt:dt=""string"">2023-03-23T10:14:40Z</DateUtc></StartTime><FrequencyChanges><FrequencyChange><Frequency dt:dt=""r8"">3312841</Frequency><Timestamp dt:dt=""r8"">21526889916</Timestamp><Current dt:dt=""r8"">0</Current><DateUtc dt:dt=""string"">2023-03-23T10:14:40Z</DateUtc></FrequencyChange></FrequencyChanges></Clock>\n";TMS_Ibrahim-49-1;75.029;1.0.0.561;1;;52680712;2.0.10.242;2.0.10.242;03-23-2023;23/03/2023 10:14;11:14:40;2.0.10.147;0;;-999999;22;25449;0;1;1218;26667;1;1;1;2;1;0;1;BlockProcFischi;BlockList;1;125;0;;-999999;32;28551;0;1;1232;29783;1;1;1;1;ProcFischi1;ListBlockFischi;7;0;2;0;0;3;Pr5_B;;3;ug;0;2;30;1;7;3;1;TrialProc;7582;675;Pr5_B;92;1182;1274;ListFischi1;0;;2;203;82559;12;31;5599;88158;1;1;1;1;1063;469;0;0;0
TMS_Ibrahim;49;1;"<?xml version=""1.0""?>\n<Clock xmlns:dt=""urn:schemas-microsoft-com:datatypes""><Description dt:dt=""string"">E-Prime Primary Realtime Clock</Description><StartTime><Timestamp dt:dt=""int"">0</Timestamp><DateUtc dt:dt=""string"">2023-03-23T10:14:40Z</DateUtc></StartTime><FrequencyChanges><FrequencyChange><Frequency dt:dt=""r8"">3312841</Frequency><Timestamp dt:dt=""r8"">21526889916</Timestamp><Current dt:dt=""r8"">0</Current><DateUtc dt:dt=""string"">2023-03-23T10:14:40Z</DateUtc></FrequencyChange></FrequencyChanges></Clock>\n";TMS_Ibrahim-49-1;75.029;1.0.0.561;1;;52680712;2.0.10.242;2.0.10.242;03-23-2023;23/03/2023 10:14;11:14:40;2.0.10.147;0;;-999999;22;25449;0;1;1218;26667;1;1;1;2;1;0;1;BlockProcFischi;BlockList;1;125;0;;-999999;32;28551;0;1;1232;29783;1;1;1;1;ProcFischi1;ListBlockFischi;8;1;1;0;0;3;Po4_B;225;2;op;3;2;45;1;8;2;0;TrialProc;2170;1339;Po4_B;43;1670;1713;ListFischi1;0;;2;203;95142;11;13;1704;96846;136;1;1704;1;761;413;1568;1;1
TMS_Ibrahim;49;1;"<?xml version=""1.0""?>\n<Clock xmlns:dt=""urn:schemas-microsoft-com:datatypes""><Description dt:dt=""string"">E-Prime Primary Realtime Clock</Description><StartTime><Timestamp dt:dt=""int"">0</Timestamp><DateUtc dt:dt=""string"">2023-03-23T10:14:40Z</DateUtc></StartTime><FrequencyChanges><FrequencyChange><Frequency dt:dt=""r8"">3312841</Frequency><Timestamp dt:dt=""r8"">21526889916</Timestamp><Current dt:dt=""r8"">0</Current><DateUtc dt:dt=""string"">2023-03-23T10:14:40Z</DateUtc></FrequencyChange></FrequencyChanges></Clock>\n";TMS_Ibrahim-49-1;75.029;1.0.0.561;1;;52680712;2.0.10.242;2.0.10.242;03-23-2023;23/03/2023 10:14;11:14:40;2.0.10.147;0;;-999999;22;25449;0;1;1218;26667;1;1;1;2;1;0;1;BlockProcFischi;BlockList;1;125;0;;-999999;32;28551;0;1;1232;29783;1;1;1;1;ProcFischi1;ListBlockFischi;9;1;1;0;0;5;Po4_B;250;4;ug;5;2;56;1;9;4;1;TrialProc;2723;1341;Po4_B;247;1469;1715;ListFischi1;0;;2;203;103510;13;1551;5224;108734;104;1;1496;1;675;418;1392;1;1
TMS_Ibrahim;49;1;"<?xml version=""1.0""?>\n<Clock xmlns:dt=""urn:schemas-microsoft-com:datatypes""><Description dt:dt=""string"">E-Prime Primary Realtime Clock</Description><StartTime><Timestamp dt:dt=""int"">0</Timestamp><DateUtc dt:dt=""string"">2023-03-23T10:14:40Z</DateUtc></StartTime><FrequencyChanges><FrequencyChange><Frequency dt:dt=""r8"">3312841</Frequency><Timestamp dt:dt=""r8"">21526889916</Timestamp><Current dt:dt=""r8"">0</Current><DateUtc dt:dt=""string"">2023-03-23T10:14:40Z</DateUtc></FrequencyChange></FrequencyChanges></Clock>\n";TMS_Ibrahim-49-1;75.029;1.0.0.561;1;;52680712;2.0.10.242;2.0.10.242;03-23-2023;23/03/2023 10:14;11:14:40;2.0.10.147;0;;-999999;22;25449;0;1;1218;26667;1;1;1;2;1;0;1;BlockProcFischi;BlockList;1;125;0;;-999999;32;28551;0;1;1232;29783;1;1;1;1;ProcFischi1;ListBlockFischi;10;0;1;1;0;3;Pomod_B;;2;op;5;2;47;1;10;2;0;TrialProc;2442;1320;Pomod_B;220;1460;1680;ListFischi1;0;;2;201;111196;17;1555;2418;113614;19;1;1490;1;1201;546;1471;1;0
TMS_Ibrahim;49;1;"<?xml version=""1.0""?>\n<Clock xmlns:dt=""urn:schemas-microsoft-com:datatypes""><Description dt:dt=""string"">E-Prime Primary Realtime Clock</Description><StartTime><Timestamp dt:dt=""int"">0</Timestamp><DateUtc dt:dt=""string"">2023-03-23T10:14:40Z</DateUtc></StartTime><FrequencyChanges><FrequencyChange><Frequency dt:dt=""r8"">3312841</Frequency><Timestamp dt:dt=""r8"">21526889916</Timestamp><Current dt:dt=""r8"">0</Current><DateUtc dt:dt=""string"">2023-03-23T10:14:40Z</DateUtc></FrequencyChange></FrequencyChanges></Clock>\n";TMS_Ibrahim-49-1;75.029;1.0.0.561;1;;52680712;2.0.10.242;2.0.10.242;03-23-2023;23/03/2023 10:14;11:14:40;2.0.10.147;0;;-999999;22;25449;0;1;1218;26667;1;1;1;2;1;0;1;BlockProcFischi;BlockList;1;125;0;;-999999;32;28551;0;1;1232;29783;1;1;1;1;ProcFischi1;ListBlockFischi;11;1;1;0;0;3;Po5_B;200;2;op;3;2;41;1;11;2;0;TrialProc;2831;978;Po5_B;120;1352;1472;ListFischi1;0;;2;203;120680;10;13;1381;122061;149;1;1381;1;1133;347;1232;1;1
TMS_Ibrahim;49;1;"<?xml version=""1.0""?>\n<Clock xmlns:dt=""urn:schemas-microsoft-com:datatypes""><Description dt:dt=""string"">E-Prime Primary Realtime Clock</Description><StartTime><Timestamp dt:dt=""int"">0</Timestamp><DateUtc dt:dt=""string"">2023-03-23T10:14:40Z</DateUtc></StartTime><FrequencyChanges><FrequencyChange><Frequency dt:dt=""r8"">3312841</Frequency><Timestamp dt:dt=""r8"">21526889916</Timestamp><Current dt:dt=""r8"">0</Current><DateUtc dt:dt=""string"">2023-03-23T10:14:40Z</DateUtc></FrequencyChange></FrequencyChanges></Clock>\n";TMS_Ibrahim-49-1;75.029;1.0.0.561;1;;52680712;2.0.10.242;2.0.10.242;03-23-2023;23/03/2023 10:14;11:14:40;2.0.10.147;0;;-999999;22;25449;0;1;1218;26667;1;1;1;2;1;0;1;BlockProcFischi;BlockList;1;125;0;;-999999;32;28551;0;1;1232;29783;1;1;1;1;ProcFischi1;ListBlockFischi;12;1;2;0;0;5;Pr5_B;225;1;op;5;2;9;1;12;1;0;TrialProc;1353;671;Pr5_B;139;1132;1270;ListFischi1;0;;2;203;129426;7;15;1163;130589;75;1;1163;1;1480;207;1088;1;1
TMS_Ibrahim;49;1;"<?xml version=""1.0""?>\n<Clock xmlns:dt=""urn:schemas-microsoft-com:datatypes""><Description dt:dt=""string"">E-Prime Primary Realtime Clock</Description><StartTime><Timestamp dt:dt=""int"">0</Timestamp><DateUtc dt:dt=""string"">2023-03-23T10:14:40Z</DateUtc></StartTime><FrequencyChanges><FrequencyChange><Frequency dt:dt=""r8"">3312841</Frequency><Timestamp dt:dt=""r8"">21526889916</Timestamp><Current dt:dt=""r8"">0</Current><DateUtc dt:dt=""string"">2023-03-23T10:14:40Z</DateUtc></FrequencyChange></FrequencyChanges></Clock>\n";TMS_Ibrahim-49-1;75.029;1.0.0.561;1;;52680712;2.0.10.242;2.0.10.242;03-23-2023;23/03/2023 10:14;11:14:40;2.0.10.147;0;;-999999;22;25449;0;1;1218;26667;1;1;1;2;1;0;1;BlockProcFischi;BlockList;1;125;0;;-999999;32;28551;0;1;1232;29783;1;1;1;1;ProcFischi1;ListBlockFischi;13;1;2;0;0;5;Pr2_B;200;1;op;5;2;1;1;13;1;0;TrialProc;1309;712;Pr2_B;35;1280;1244;ListFischi1;0;;2;203;138166;11;155;2599;140765;71;1;1303;1;1233;575;1232;1;1
TMS_Ibrahim;49;1;"<?xml version=""1.0""?>\n<Clock xmlns:dt=""urn:schemas-microsoft-com:datatypes""><Description dt:dt=""string"">E-Prime Primary Realtime Clock</Description><StartTime><Timestamp dt:dt=""int"">0</Timestamp><DateUtc dt:dt=""string"">2023-03-23T10:14:40Z</DateUtc></StartTime><FrequencyChanges><FrequencyChange><Frequency dt:dt=""r8"">3312841</Frequency><Timestamp dt:dt=""r8"">21526889916</Timestamp><Current dt:dt=""r8"">0</Current><DateUtc dt:dt=""string"">2023-03-23T10:14:40Z</DateUtc></FrequencyChange></FrequencyChanges></Clock>\n";TMS_Ibrahim-49-1;75.029;1.0.0.561;1;;52680712;2.0.10.242;2.0.10.242;03-23-2023;23/03/2023 10:14;11:14:40;2.0.10.147;0;;-999999;22;25449;0;1;1218;26667;1;1;1;2;1;0;1;BlockProcFischi;BlockList;1;125;0;;-999999;32;28551;0;1;1232;29783;1;1;1;1;ProcFischi1;ListBlockFischi;14;1;1;0;0;5;Po4_B;250;4;ug;5;2;51;1;14;4;1;TrialProc;2528;1340;Po4_B;419;1296;1715;ListFischi1;0;;2;201;145389;11;15;1328;146717;96;1;1328;1;794;250;1232;1;1
TMS_Ibrahim;49;1;"<?xml version=""1.0""?>\n<Clock xmlns:dt=""urn:schemas-microsoft-com:datatypes""><Description dt:dt=""string"">E-Prime Primary Realtime Clock</Description><StartTime><Timestamp dt:dt=""int"">0</Timestamp><DateUtc dt:dt=""string"">2023-03-23T10:14:40Z</DateUtc></StartTime><FrequencyChanges><FrequencyChange><Frequency dt:dt=""r8"">3312841</Frequency><Timestamp dt:dt=""r8"">21526889916</Timestamp><Current dt:dt=""r8"">0</Current><DateUtc dt:dt=""string"">2023-03-23T10:14:40Z</DateUtc></FrequencyChange></FrequencyChanges></Clock>\n";TMS_Ibrahim-49-1;75.029;1.0.0.561;1;;52680712;2.0.10.242;2.0.10.242;03-23-2023;23/03/2023 10:14;11:14:40;2.0.10.147;0;;-999999;22;25449;0;1;1218;26667;1;1;1;2;1;0;1;BlockProcFischi;BlockList;1;125;0;;-999999;32;28551;0;1;1232;29783;1;1;1;1;ProcFischi1;ListBlockFischi;15;1;2;0;0;3;Pr4_B;175;3;ug;3;2;19;1;15;3;1;TrialProc;2016;675;Pr4_B;74;1321;1248;ListFischi1;0;;2;203;153238;13;13;1351;154589;119;1;1351;1;1323;524;1232;1;1
TMS_Ibrahim;49;1;"<?xml version=""1.0""?>\n<Clock xmlns:dt=""urn:schemas-microsoft-com:datatypes""><Description dt:dt=""string"">E-Prime Primary Realtime Clock</Description><StartTime><Timestamp dt:dt=""int"">0</Timestamp><DateUtc dt:dt=""string"">2023-03-23T10:14:40Z</DateUtc></StartTime><FrequencyChanges><FrequencyChange><Frequency dt:dt=""r8"">3312841</Frequency><Timestamp dt:dt=""r8"">21526889916</Timestamp><Current dt:dt=""r8"">0</Current><DateUtc dt:dt=""string"">2023-03-23T10:14:40Z</DateUtc></FrequencyChange></FrequencyChanges></Clock>\n";TMS_Ibrahim-49-1;75.029;1.0.0.561;1;;52680712;2.0.10.242;2.0.10.242;03-23-2023;23/03/2023 10:14;11:14:40;2.0.10.147;0;;-999999;22;25449;0;1;1218;26667;1;1;1;2;1;0;1;BlockProcFischi;BlockList;1;125;0;;-999999;32;28551;0;1;1232;29783;1;1;1;1;ProcFischi1;ListBlockFischi;16;1;1;0;1;5;Po8_B;250;4;ug;5;2;58;1;16;4;1;TrialProc;2139;1253;Po8_B;214;1373;1586;ListFischi1;0;;2;201;161177;17;15;1395;162572;115;1;1395;1;1060;338;1280;1;1
TMS_Ibrahim;49;1;"<?xml version=""1.0""?>\n<Clock xmlns:dt=""urn:schemas-microsoft-com:datatypes""><Description dt:dt=""string"">E-Prime Primary Realtime Clock</Description><StartTime><Timestamp dt:dt=""int"">0</Timestamp><DateUtc dt:dt=""string"">2023-03-23T10:14:40Z</DateUtc></StartTime><FrequencyChanges><FrequencyChange><Frequency dt:dt=""r8"">3312841</Frequency><Timestamp dt:dt=""r8"">21526889916</Timestamp><Current dt:dt=""r8"">0</Current><DateUtc dt:dt=""string"">2023-03-23T10:14:40Z</DateUtc></FrequencyChange></FrequencyChanges></Clock>\n";TMS_Ibrahim-49-1;75.029;1.0.0.561;1;;52680712;2.0.10.242;2.0.10.242;03-23-2023;23/03/2023 10:14;11:14:40;2.0.10.147;0;;-999999;22;25449;0;1;1218;26667;1;1;1;2;1;0;1;BlockProcFischi;BlockList;1;125;0;;-999999;32;28551;0;1;1232;29783;1;1;1;1;ProcFischi1;ListBlockFischi;17;1;1;0;0;3;Po5_B;175;2;op;3;2;36;1;17;2;0;TrialProc;2102;997;Po5_B;109;1599;1490;ListFischi1;0;;4;210;170866;18;13;1626;172492;10;1;1626;1;1323;234;1616;1;1
TMS_Ibrahim;49;1;"<?xml version=""1.0""?>\n<Clock xmlns:dt=""urn:schemas-microsoft-com:datatypes""><Description dt:dt=""string"">E-Prime Primary Realtime Clock</Description><StartTime><Timestamp dt:dt=""int"">0</Timestamp><DateUtc dt:dt=""string"">2023-03-23T10:14:40Z</DateUtc></StartTime><FrequencyChanges><FrequencyChange><Frequency dt:dt=""r8"">3312841</Frequency><Timestamp dt:dt=""r8"">21526889916</Timestamp><Current dt:dt=""r8"">0</Current><DateUtc dt:dt=""string"">2023-03-23T10:14:40Z</DateUtc></FrequencyChange></FrequencyChanges></Clock>\n";TMS_Ibrahim-49-1;75.029;1.0.0.561;1;;52680712;2.0.10.242;2.0.10.242;03-23-2023;23/03/2023 10:14;11:14:40;2.0.10.147;0;;-999999;22;25449;0;1;1218;26667;1;1;1;2;1;0;1;BlockProcFischi;BlockList;1;125;0;;-999999;32;28551;0;1;1232;29783;1;1;1;1;ProcFischi1;ListBlockFischi;18;1;2;0;0;3;Pr8_B;150;3;ug;3;2;21;1;18;3;1;TrialProc;2183;718;Pr8_B;24;1719;1744;ListFischi1;0;;3;203;179451;17;133;2369;181820;2;1;1745;1;1016;370;1743;1;1
TMS_Ibrahim;49;1;"<?xml version=""1.0""?>\n<Clock xmlns:dt=""urn:schemas-microsoft-com:datatypes""><Description dt:dt=""string"">E-Prime Primary Realtime Clock</Description><StartTime><Timestamp dt:dt=""int"">0</Timestamp><DateUtc dt:dt=""string"">2023-03-23T10:14:40Z</DateUtc></StartTime><FrequencyChanges><FrequencyChange><Frequency dt:dt=""r8"">3312841</Frequency><Timestamp dt:dt=""r8"">21526889916</Timestamp><Current dt:dt=""r8"">0</Current><DateUtc dt:dt=""string"">2023-03-23T10:14:40Z</DateUtc></FrequencyChange></FrequencyChanges></Clock>\n";TMS_Ibrahim-49-1;75.029;1.0.0.561;1;;52680712;2.0.10.242;2.0.10.242;03-23-2023;23/03/2023 10:14;11:14:40;2.0.10.147;0;;-999999;22;25449;0;1;1218;26667;1;1;1;2;1;0;1;BlockProcFischi;BlockList;1;125;0;;-999999;32;28551;0;1;1232;29783;1;1;1;1;ProcFischi1;ListBlockFischi;19;0;2;1;0;5;Prmod_B;;1;op;3;2;15;1;19;1;0;TrialProc;3435;1316;Prmod_B;257;1907;1651;ListFischi1;0;;3;203;187435;16;133;3521;190956;273;1;1937;1;857;527;1664;1;0
TMS_Ibrahim;49;1;"<?xml version=""1.0""?>\n<Clock xmlns:dt=""urn:schemas-microsoft-com:datatypes""><Description dt:dt=""string"">E-Prime Primary Realtime Clock</Description><StartTime><Timestamp dt:dt=""int"">0</Timestamp><DateUtc dt:dt=""string"">2023-03-23T10:14:40Z</DateUtc></StartTime><FrequencyChanges><FrequencyChange><Frequency dt:dt=""r8"">3312841</Frequency><Timestamp dt:dt=""r8"">21526889916</Timestamp><Current dt:dt=""r8"">0</Current><DateUtc dt:dt=""string"">2023-03-23T10:14:40Z</DateUtc></FrequencyChange></FrequencyChanges></Clock>\n";TMS_Ibrahim-49-1;75.029;1.0.0.561;1;;52680712;2.0.10.242;2.0.10.242;03-23-2023;23/03/2023 10:14;11:14:40;2.0.10.147;0;;-999999;22;25449;0;1;1218;26667;1;1;1;2;1;0;1;BlockProcFischi;BlockList;1;125;0;;-999999;32;28551;0;1;1232;29783;1;1;1;1;ProcFischi1;ListBlockFischi;20;1;1;1;0;5;Pomod_B;225;4;ug;5;2;64;1;20;4;1;TrialProc;3249;1319;Pomod_B;503;2182;1680;ListFischi1;0;;2;203;195778;17;155;2378;198156;234;1;2202;1;1083;454;1968;1;1
TMS_Ibrahim;49;1;"<?xml version=""1.0""?>\n<Clock xmlns:dt=""urn:schemas-microsoft-com:datatypes""><Description dt:dt=""string"">E-Prime Primary Realtime Clock</Description><StartTime><Timestamp dt:dt=""int"">0</Timestamp><DateUtc dt:dt=""string"">2023-03-23T10:14:40Z</DateUtc></StartTime><FrequencyChanges><FrequencyChange><Frequency dt:dt=""r8"">3312841</Frequency><Timestamp dt:dt=""r8"">21526889916</Timestamp><Current dt:dt=""r8"">0</Current><DateUtc dt:dt=""string"">2023-03-23T10:14:40Z</DateUtc></FrequencyChange></FrequencyChanges></Clock>\n";TMS_Ibrahim-49-1;75.029;1.0.0.561;1;;52680712;2.0.10.242;2.0.10.242;03-23-2023;23/03/2023 10:14;11:14:40;2.0.10.147;0;;-999999;22;25449;0;1;1218;26667;1;1;1;2;1;0;1;BlockProcFischi;BlockList;1;125;0;;-999999;32;28551;0;1;1232;29783;1;1;1;1;ProcFischi1;ListBlockFischi;21;1;2;0;0;3;Pr5_B;125;3;ug;3;2;25;1;21;3;1;TrialProc;3265;674;Pr5_B;113;1386;1273;ListFischi1;0;;2;203;204846;12;13;1421;206267;13;1;1421;1;791;511;1408;1;1
TMS_Ibrahim;49;1;"<?xml version=""1.0""?>\n<Clock xmlns:dt=""urn:schemas-microsoft-com:datatypes""><Description dt:dt=""string"">E-Prime Primary Realtime Clock</Description><StartTime><Timestamp dt:dt=""int"">0</Timestamp><DateUtc dt:dt=""string"">2023-03-23T10:14:40Z</DateUtc></StartTime><FrequencyChanges><FrequencyChange><Frequency dt:dt=""r8"">3312841</Frequency><Timestamp dt:dt=""r8"">21526889916</Timestamp><Current dt:dt=""r8"">0</Current><DateUtc dt:dt=""string"">2023-03-23T10:14:40Z</DateUtc></FrequencyChange></FrequencyChanges></Clock>\n";TMS_Ibrahim-49-1;75.029;1.0.0.561;1;;52680712;2.0.10.242;2.0.10.242;03-23-2023;23/03/2023 10:14;11:14:40;2.0.10.147;0;;-999999;22;25449;0;1;1218;26667;1;1;1;2;1;0;1;BlockProcFischi;BlockList;1;125;0;;-999999;32;28551;0;1;1232;29783;1;1;1;1;ProcFischi1;ListBlockFischi;22;1;2;0;0;5;Pr4_B;175;1;op;5;2;3;1;22;1;0;TrialProc;1730;671;Pr4_B;217;1460;1243;ListFischi1;0;;2;203;213113;8;15;1490;214603;66;1;1490;1;1230;393;1424;1;1
TMS_Ibrahim;49;1;"<?xml version=""1.0""?>\n<Clock xmlns:dt=""urn:schemas-microsoft-com:datatypes""><Description dt:dt=""string"">E-Prime Primary Realtime Clock</Description><StartTime><Timestamp dt:dt=""int"">0</Timestamp><DateUtc dt:dt=""string"">2023-03-23T10:14:40Z</DateUtc></StartTime><FrequencyChanges><FrequencyChange><Frequency dt:dt=""r8"">3312841</Frequency><Timestamp dt:dt=""r8"">21526889916</Timestamp><Current dt:dt=""r8"">0</Current><DateUtc dt:dt=""string"">2023-03-23T10:14:40Z</DateUtc></FrequencyChange></FrequencyChanges></Clock>\n";TMS_Ibrahim-49-1;75.029;1.0.0.561;1;;52680712;2.0.10.242;2.0.10.242;03-23-2023;23/03/2023 10:14;11:14:40;2.0.10.147;0;;-999999;22;25449;0;1;1218;26667;1;1;1;2;1;0;1;BlockProcFischi;BlockList;1;125;0;;-999999;32;28551;0;1;1232;29783;1;1;1;1;ProcFischi1;ListBlockFischi;23;1;2;1;0;3;Prmod_B;125;3;ug;3;2;31;1;23;3;1;TrialProc;2419;1312;Prmod_B;51;1595;1646;ListFischi1;0;;2;203;221616;9;13;1627;223243;12;1;1627;1;1080;377;1615;1;1
TMS_Ibrahim;49;1;"<?xml version=""1.0""?>\n<Clock xmlns:dt=""urn:schemas-microsoft-com:datatypes""><Description dt:dt=""string"">E-Prime Primary Realtime Clock</Description><StartTime><Timestamp dt:dt=""int"">0</Timestamp><DateUtc dt:dt=""string"">2023-03-23T10:14:40Z</DateUtc></StartTime><FrequencyChanges><FrequencyChange><Frequency dt:dt=""r8"">3312841</Frequency><Timestamp dt:dt=""r8"">21526889916</Timestamp><Current dt:dt=""r8"">0</Current><DateUtc dt:dt=""string"">2023-03-23T10:14:40Z</DateUtc></FrequencyChange></FrequencyChanges></Clock>\n";TMS_Ibrahim-49-1;75.029;1.0.0.561;1;;52680712;2.0.10.242;2.0.10.242;03-23-2023;23/03/2023 10:14;11:14:40;2.0.10.147;0;;-999999;22;25449;0;1;1218;26667;1;1;1;2;1;0;1;BlockProcFischi;BlockList;1;125;0;;-999999;32;28551;0;1;1232;29783;1;1;1;1;ProcFischi1;ListBlockFischi;24;1;2;0;1;5;Pr8_B;175;1;op;5;2;10;1;24;1;0;TrialProc;2082;714;Pr8_B;8;1747;1739;ListFischi1;0;;2;203;230463;12;15;1772;232235;28;1;1772;1;1080;417;1744;1;1
TMS_Ibrahim;49;1;"<?xml version=""1.0""?>\n<Clock xmlns:dt=""urn:schemas-microsoft-com:datatypes""><Description dt:dt=""string"">E-Prime Primary Realtime Clock</Description><StartTime><Timestamp dt:dt=""int"">0</Timestamp><DateUtc dt:dt=""string"">2023-03-23T10:14:40Z</DateUtc></StartTime><FrequencyChanges><FrequencyChange><Frequency dt:dt=""r8"">3312841</Frequency><Timestamp dt:dt=""r8"">21526889916</Timestamp><Current dt:dt=""r8"">0</Current><DateUtc dt:dt=""string"">2023-03-23T10:14:40Z</DateUtc></FrequencyChange></FrequencyChanges></Clock>\n";TMS_Ibrahim-49-1;75.029;1.0.0.561;1;;52680712;2.0.10.242;2.0.10.242;03-23-2023;23/03/2023 10:14;11:14:40;2.0.10.147;0;;-999999;22;25449;0;1;1218;26667;1;1;1;2;1;0;1;BlockProcFischi;BlockList;1;125;0;;-999999;32;28551;0;1;1232;29783;1;1;1;1;ProcFischi1;ListBlockFischi;25;1;2;0;0;3;Pr2_B;100;3;ug;3;2;22;1;25;3;1;TrialProc;2291;717;Pr2_B;64;1186;1251;ListFischi1;0;;2;203;239523;15;13;1208;240731;72;1;1208;1;5063;499;1136;1;1
TMS_Ibrahim;49;1;"<?xml version=""1.0""?>\n<Clock xmlns:dt=""urn:schemas-microsoft-com:datatypes""><Description dt:dt=""string"">E-Prime Primary Realtime Clock</Description><StartTime><Timestamp dt:dt=""int"">0</Timestamp><DateUtc dt:dt=""string"">2023-03-23T10:14:40Z</DateUtc></StartTime><FrequencyChanges><FrequencyChange><Frequency dt:dt=""r8"">3312841</Frequency><Timestamp dt:dt=""r8"">21526889916</Timestamp><Current dt:dt=""r8"">0</Current><DateUtc dt:dt=""string"">2023-03-23T10:14:40Z</DateUtc></FrequencyChange></FrequencyChanges></Clock>\n";TMS_Ibrahim-49-1;75.029;1.0.0.561;1;;52680712;2.0.10.242;2.0.10.242;03-23-2023;23/03/2023 10:14;11:14:40;2.0.10.147;0;;-999999;22;25449;0;1;1218;26667;1;1;1;2;1;0;1;BlockProcFischi;BlockList;1;125;0;;-999999;32;28551;0;1;1232;29783;1;1;1;1;ProcFischi1;ListBlockFischi;26;1;1;0;1;5;Po4_B;225;4;ug;5;2;61;1;26;4;1;TrialProc;1721;1334;Po4_B;238;1470;1708;ListFischi1;0;;2;203;254405;7;15;1493;255898;149;1;1493;1;1182;350;1344;1;1
TMS_Ibrahim;49;1;"<?xml version=""1.0""?>\n<Clock xmlns:dt=""urn:schemas-microsoft-com:datatypes""><Description dt:dt=""string"">E-Prime Primary Realtime Clock</Description><StartTime><Timestamp dt:dt=""int"">0</Timestamp><DateUtc dt:dt=""string"">2023-03-23T10:14:40Z</DateUtc></StartTime><FrequencyChanges><FrequencyChange><Frequency dt:dt=""r8"">3312841</Frequency><Timestamp dt:dt=""r8"">21526889916</Timestamp><Current dt:dt=""r8"">0</Current><DateUtc dt:dt=""string"">2023-03-23T10:14:40Z</DateUtc></FrequencyChange></FrequencyChanges></Clock>\n";TMS_Ibrahim-49-1;75.029;1.0.0.561;1;;52680712;2.0.10.242;2.0.10.242;03-23-2023;23/03/2023 10:14;11:14:40;2.0.10.147;0;;-999999;22;25449;0;1;1218;26667;1;1;1;2;1;0;1;BlockProcFischi;BlockList;1;125;0;;-999999;32;28551;0;1;1232;29783;1;1;1;1;ProcFischi1;ListBlockFischi;27;1;2;0;0;5;Pr8_B;150;1;op;5;2;5;1;27;1;0;TrialProc;2544;712;Pr8_B;42;1697;1738;ListFischi1;0;;2;203;263453;9;15;1725;265178;77;1;1725;1;937;447;1648;1;1
TMS_Ibrahim;49;1;"<?xml version=""1.0""?>\n<Clock xmlns:dt=""urn:schemas-microsoft-com:datatypes""><Description dt:dt=""string"">E-Prime Primary Realtime Clock</Description><StartTime><Timestamp dt:dt=""int"">0</Timestamp><DateUtc dt:dt=""string"">2023-03-23T10:14:40Z</DateUtc></StartTime><FrequencyChanges><FrequencyChange><Frequency dt:dt=""r8"">3312841</Frequency><Timestamp dt:dt=""r8"">21526889916</Timestamp><Current dt:dt=""r8"">0</Current><DateUtc dt:dt=""string"">2023-03-23T10:14:40Z</DateUtc></FrequencyChange></FrequencyChanges></Clock>\n";TMS_Ibrahim-49-1;75.029;1.0.0.561;1;;52680712;2.0.10.242;2.0.10.242;03-23-2023;23/03/2023 10:14;11:14:40;2.0.10.147;0;;-999999;22;25449;0;1;1218;26667;1;1;1;2;1;0;1;BlockProcFischi;BlockList;1;125;0;;-999999;32;28551;0;1;1232;29783;1;1;1;1;ProcFischi1;ListBlockFischi;28;1;1;0;1;5;Po2_B;225;4;ug;5;2;54;1;28;4;1;TrialProc;3328;1579;Po2_B;331;2138;1806;ListFischi1;0;;2;203;272687;12;155;4187;276874;91;1;2171;1;2020;398;2080;1;1
TMS_Ibrahim;49;1;"<?xml version=""1.0""?>\n<Clock xmlns:dt=""urn:schemas-microsoft-com:datatypes""><Description dt:dt=""string"">E-Prime Primary Realtime Clock</Description><StartTime><Timestamp dt:dt=""int"">0</Timestamp><DateUtc dt:dt=""string"">2023-03-23T10:14:40Z</DateUtc></StartTime><FrequencyChanges><FrequencyChange><Frequency dt:dt=""r8"">3312841</Frequency><Timestamp dt:dt=""r8"">21526889916</Timestamp><Current dt:dt=""r8"">0</Current><DateUtc dt:dt=""string"">2023-03-23T10:14:40Z</DateUtc></FrequencyChange></FrequencyChanges></Clock>\n";TMS_Ibrahim-49-1;75.029;1.0.0.561;1;;52680712;2.0.10.242;2.0.10.242;03-23-2023;23/03/2023 10:14;11:14:40;2.0.10.147;0;;-999999;22;25449;0;1;1218;26667;1;1;1;2;1;0;1;BlockProcFischi;BlockList;1;125;0;;-999999;32;28551;0;1;1232;29783;1;1;1;1;ProcFischi1;ListBlockFischi;29;0;1;1;2;5;Pomod_B;;4;ug;3;2;63;1;29;4;1;TrialProc;3766;1311;Pomod_B;284;1387;1670;ListFischi1;0;;2;203;282687;8;1355;3339;286026;12;1;1419;1;863;351;1407;1;0
TMS_Ibrahim;49;1;"<?xml version=""1.0""?>\n<Clock xmlns:dt=""urn:schemas-microsoft-com:datatypes""><Description dt:dt=""string"">E-Prime Primary Realtime Clock</Description><StartTime><Timestamp dt:dt=""int"">0</Timestamp><DateUtc dt:dt=""string"">2023-03-23T10:14:40Z</DateUtc></StartTime><FrequencyChanges><FrequencyChange><Frequency dt:dt=""r8"">3312841</Frequency><Timestamp dt:dt=""r8"">21526889916</Timestamp><Current dt:dt=""r8"">0</Current><DateUtc dt:dt=""string"">2023-03-23T10:14:40Z</DateUtc></FrequencyChange></FrequencyChanges></Clock>\n";TMS_Ibrahim-49-1;75.029;1.0.0.561;1;;52680712;2.0.10.242;2.0.10.242;03-23-2023;23/03/2023 10:14;11:14:40;2.0.10.147;0;;-999999;22;25449;0;1;1218;26667;1;1;1;2;1;0;1;BlockProcFischi;BlockList;1;125;0;;-999999;32;28551;0;1;1232;29783;1;1;1;1;ProcFischi1;ListBlockFischi;30;1;1;0;0;3;Po4_B;150;2;op;3;2;35;1;30;2;0;TrialProc;3495;1342;Po4_B;206;1510;1716;ListFischi1;0;;2;203;290797;15;1333;2844;293641;109;1;1532;1;609;229;1423;1;1
TMS_Ibrahim;49;1;"<?xml version=""1.0""?>\n<Clock xmlns:dt=""urn:schemas-microsoft-com:datatypes""><Description dt:dt=""string"">E-Prime Primary Realtime Clock</Description><StartTime><Timestamp dt:dt=""int"">0</Timestamp><DateUtc dt:dt=""string"">2023-03-23T10:14:40Z</DateUtc></StartTime><FrequencyChanges><FrequencyChange><Frequency dt:dt=""r8"">3312841</Frequency><Timestamp dt:dt=""r8"">21526889916</Timestamp><Current dt:dt=""r8"">0</Current><DateUtc dt:dt=""string"">2023-03-23T10:14:40Z</DateUtc></FrequencyChange></FrequencyChanges></Clock>\n";TMS_Ibrahim-49-1;75.029;1.0.0.561;1;;52680712;2.0.10.242;2.0.10.242;03-23-2023;23/03/2023 10:14;11:14:40;2.0.10.147;0;;-999999;22;25449;0;1;1218;26667;1;1;1;2;1;0;1;BlockProcFischi;BlockList;1;125;0;;-999999;32;28551;0;1;1232;29783;1;1;1;1;ProcFischi1;ListBlockFischi;31;1;1;0;2;5;Po2_B;225;4;ug;5;2;59;1;31;4;1;TrialProc;2314;1576;Po2_B;61;1742;1803;ListFischi1;0;;2;203;299521;8;15;1768;301289;56;1;1768;1;838;519;1712;1;1
TMS_Ibrahim;49;1;"<?xml version=""1.0""?>\n<Clock xmlns:dt=""urn:schemas-microsoft-com:datatypes""><Description dt:dt=""string"">E-Prime Primary Realtime Clock</Description><StartTime><Timestamp dt:dt=""int"">0</Timestamp><DateUtc dt:dt=""string"">2023-03-23T10:14:40Z</DateUtc></StartTime><FrequencyChanges><FrequencyChange><Frequency dt:dt=""r8"">3312841</Frequency><Timestamp dt:dt=""r8"">21526889916</Timestamp><Current dt:dt=""r8"">0</Current><DateUtc dt:dt=""string"">2023-03-23T10:14:40Z</DateUtc></FrequencyChange></FrequencyChanges></Clock>\n";TMS_Ibrahim-49-1;75.029;1.0.0.561;1;;52680712;2.0.10.242;2.0.10.242;03-23-2023;23/03/2023 10:14;11:14:40;2.0.10.147;0;;-999999;22;25449;0;1;1218;26667;1;1;1;2;1;0;1;BlockProcFischi;BlockList;1;125;0;;-999999;32;28551;0;1;1232;29783;1;1;1;1;ProcFischi1;ListBlockFischi;32;0;2;0;0;5;Pr5_B;;1;op;0;2;14;1;32;1;0;TrialProc;2614;678;Pr5_B;267;1545;1278;ListFischi1;0;;2;203;308695;17;5;1570;310265;1;1;1;1;949;535;0;0;0
TMS_Ibrahim;49;1;"<?xml version=""1.0""?>\n<Clock xmlns:dt=""urn:schemas-microsoft-com:datatypes""><Description dt:dt=""string"">E-Prime Primary Realtime Clock</Description><StartTime><Timestamp dt:dt=""int"">0</Timestamp><DateUtc dt:dt=""string"">2023-03-23T10:14:40Z</DateUtc></StartTime><FrequencyChanges><FrequencyChange><Frequency dt:dt=""r8"">3312841</Frequency><Timestamp dt:dt=""r8"">21526889916</Timestamp><Current dt:dt=""r8"">0</Current><DateUtc dt:dt=""string"">2023-03-23T10:14:40Z</DateUtc></FrequencyChange></FrequencyChanges></Clock>\n";TMS_Ibrahim-49-1;75.029;1.0.0.561;1;;52680712;2.0.10.242;2.0.10.242;03-23-2023;23/03/2023 10:14;11:14:40;2.0.10.147;0;;-999999;22;25449;0;1;1218;26667;1;1;1;2;1;0;1;BlockProcFischi;BlockList;1;125;0;;-999999;32;28551;0;1;1232;29783;1;1;1;1;ProcFischi1;ListBlockFischi;33;0;2;0;0;5;Pr4_B;;1;op;0;2;13;1;33;1;0;TrialProc;4430;672;Pr4_B;148;1392;1243;ListFischi1;0;;2;203;316900;9;5;1413;318313;1;1;1;1;662;218;0;0;0
TMS_Ibrahim;49;1;"<?xml version=""1.0""?>\n<Clock xmlns:dt=""urn:schemas-microsoft-com:datatypes""><Description dt:dt=""string"">E-Prime Primary Realtime Clock</Description><StartTime><Timestamp dt:dt=""int"">0</Timestamp><DateUtc dt:dt=""string"">2023-03-23T10:14:40Z</DateUtc></StartTime><FrequencyChanges><FrequencyChange><Frequency dt:dt=""r8"">3312841</Frequency><Timestamp dt:dt=""r8"">21526889916</Timestamp><Current dt:dt=""r8"">0</Current><DateUtc dt:dt=""string"">2023-03-23T10:14:40Z</DateUtc></FrequencyChange></FrequencyChanges></Clock>\n";TMS_Ibrahim-49-1;75.029;1.0.0.561;1;;52680712;2.0.10.242;2.0.10.242;03-23-2023;23/03/2023 10:14;11:14:40;2.0.10.147;0;;-999999;22;25449;0;1;1218;26667;1;1;1;2;1;0;1;BlockProcFischi;BlockList;1;125;0;;-999999;32;28551;0;1;1232;29783;1;1;1;1;ProcFischi1;ListBlockFischi;34;0;1;0;1;3;Po5_B;;2;op;5;2;46;1;34;2;0;TrialProc;4715;981;Po5_B;49;1427;1476;ListFischi1;0;;2;203;329156;15;15;1461;330617;453;1;1461;1;659;447;1008;1;0
TMS_Ibrahim;49;1;"<?xml version=""1.0""?>\n<Clock xmlns:dt=""urn:schemas-microsoft-com:datatypes""><Description dt:dt=""string"">E-Prime Primary Realtime Clock</Description><StartTime><Timestamp dt:dt=""int"">0</Timestamp><DateUtc dt:dt=""string"">2023-03-23T10:14:40Z</DateUtc></StartTime><FrequencyChanges><FrequencyChange><Frequency dt:dt=""r8"">3312841</Frequency><Timestamp dt:dt=""r8"">21526889916</Timestamp><Current dt:dt=""r8"">0</Current><DateUtc dt:dt=""string"">2023-03-23T10:14:40Z</DateUtc></FrequencyChange></FrequencyChanges></Clock>\n";TMS_Ibrahim-49-1;75.029;1.0.0.561;1;;52680712;2.0.10.242;2.0.10.242;03-23-2023;23/03/2023 10:14;11:14:40;2.0.10.147;0;;-999999;22;25449;0;1;1218;26667;1;1;1;2;1;0;1;BlockProcFischi;BlockList;1;125;0;;-999999;32;28551;0;1;1232;29783;1;1;1;1;ProcFischi1;ListBlockFischi;35;1;2;0;0;5;Pr2_B;125;1;op;5;2;6;1;35;1;0;TrialProc;3943;712;Pr2_B;267;1512;1245;ListFischi1;0;;2;203;338944;10;155;2824;341768;136;1;1544;1;688;477;1408;1;1
TMS_Ibrahim;49;1;"<?xml version=""1.0""?>\n<Clock xmlns:dt=""urn:schemas-microsoft-com:datatypes""><Description dt:dt=""string"">E-Prime Primary Realtime Clock</Description><StartTime><Timestamp dt:dt=""int"">0</Timestamp><DateUtc dt:dt=""string"">2023-03-23T10:14:40Z</DateUtc></StartTime><FrequencyChanges><FrequencyChange><Frequency dt:dt=""r8"">3312841</Frequency><Timestamp dt:dt=""r8"">21526889916</Timestamp><Current dt:dt=""r8"">0</Current><DateUtc dt:dt=""string"">2023-03-23T10:14:40Z</DateUtc></FrequencyChange></FrequencyChanges></Clock>\n";TMS_Ibrahim-49-1;75.029;1.0.0.561;1;;52680712;2.0.10.242;2.0.10.242;03-23-2023;23/03/2023 10:14;11:14:40;2.0.10.147;0;;-999999;22;25449;0;1;1218;26667;1;1;1;2;1;0;1;BlockProcFischi;BlockList;1;125;0;;-999999;32;28551;0;1;1232;29783;1;1;1;1;ProcFischi1;ListBlockFischi;36;1;2;0;1;5;Pr5_B;125;1;op;5;2;4;1;36;1;0;TrialProc;2597;674;Pr5_B;41;1314;1272;ListFischi1;0;;2;203;348072;11;155;2000;350072;160;1;1344;1;1110;334;1184;1;1
TMS_Ibrahim;49;1;"<?xml version=""1.0""?>\n<Clock xmlns:dt=""urn:schemas-microsoft-com:datatypes""><Description dt:dt=""string"">E-Prime Primary Realtime Clock</Description><StartTime><Timestamp dt:dt=""int"">0</Timestamp><DateUtc dt:dt=""string"">2023-03-23T10:14:40Z</DateUtc></StartTime><FrequencyChanges><FrequencyChange><Frequency dt:dt=""r8"">3312841</Frequency><Timestamp dt:dt=""r8"">21526889916</Timestamp><Current dt:dt=""r8"">0</Current><DateUtc dt:dt=""string"">2023-03-23T10:14:40Z</DateUtc></FrequencyChange></FrequencyChanges></Clock>\n";TMS_Ibrahim-49-1;75.029;1.0.0.561;1;;52680712;2.0.10.242;2.0.10.242;03-23-2023;23/03/2023 10:14;11:14:40;2.0.10.147;0;;-999999;22;25449;0;1;1218;26667;1;1;1;2;1;0;1;BlockProcFischi;BlockList;1;125;0;;-999999;32;28551;0;1;1232;29783;1;1;1;1;ProcFischi1;ListBlockFischi;37;1;2;0;0;5;Pr2_B;100;1;op;5;2;11;1;37;1;0;TrialProc;2363;711;Pr2_B;237;1481;1244;ListFischi1;0;;2;203;356084;10;15;1508;357592;84;1;1508;1;878;237;1424;1;1
TMS_Ibrahim;49;1;"<?xml version=""1.0""?>\n<Clock xmlns:dt=""urn:schemas-microsoft-com:datatypes""><Description dt:dt=""string"">E-Prime Primary Realtime Clock</Description><StartTime><Timestamp dt:dt=""int"">0</Timestamp><DateUtc dt:dt=""string"">2023-03-23T10:14:40Z</DateUtc></StartTime><FrequencyChanges><FrequencyChange><Frequency dt:dt=""r8"">3312841</Frequency><Timestamp dt:dt=""r8"">21526889916</Timestamp><Current dt:dt=""r8"">0</Current><DateUtc dt:dt=""string"">2023-03-23T10:14:40Z</DateUtc></FrequencyChange></FrequencyChanges></Clock>\n";TMS_Ibrahim-49-1;75.029;1.0.0.561;1;;52680712;2.0.10.242;2.0.10.242;03-23-2023;23/03/2023 10:14;11:14:40;2.0.10.147;0;;-999999;22;25449;0;1;1218;26667;1;1;1;2;1;0;1;BlockProcFischi;BlockList;1;125;0;;-999999;32;28551;0;1;1232;29783;1;1;1;1;ProcFischi1;ListBlockFischi;38;1;1;0;0;5;Po3_B;200;4;ug;5;2;60;1;38;4;1;TrialProc;2974;1311;Po3_B;145;1432;1577;ListFischi1;0;;2;201;363576;8;15;1456;365032;116;1;1456;1;613;582;1340;1;1
TMS_Ibrahim;49;1;"<?xml version=""1.0""?>\n<Clock xmlns:dt=""urn:schemas-microsoft-com:datatypes""><Description dt:dt=""string"">E-Prime Primary Realtime Clock</Description><StartTime><Timestamp dt:dt=""int"">0</Timestamp><DateUtc dt:dt=""string"">2023-03-23T10:14:40Z</DateUtc></StartTime><FrequencyChanges><FrequencyChange><Frequency dt:dt=""r8"">3312841</Frequency><Timestamp dt:dt=""r8"">21526889916</Timestamp><Current dt:dt=""r8"">0</Current><DateUtc dt:dt=""string"">2023-03-23T10:14:40Z</DateUtc></FrequencyChange></FrequencyChanges></Clock>\n";TMS_Ibrahim-49-1;75.029;1.0.0.561;1;;52680712;2.0.10.242;2.0.10.242;03-23-2023;23/03/2023 10:14;11:14:40;2.0.10.147;0;;-999999;22;25449;0;1;1218;26667;1;1;1;2;1;0;1;BlockProcFischi;BlockList;1;125;0;;-999999;32;28551;0;1;1232;29783;1;1;1;1;ProcFischi1;ListBlockFischi;39;1;1;0;1;3;Po3_B;150;2;op;3;2;39;1;39;2;0;TrialProc;2155;1315;Po3_B;143;1438;1581;ListFischi1;0;;2;203;371808;13;1133;2040;373848;152;1;1464;1;1036;202;1312;1;1
TMS_Ibrahim;49;1;"<?xml version=""1.0""?>\n<Clock xmlns:dt=""urn:schemas-microsoft-com:datatypes""><Description dt:dt=""string"">E-Prime Primary Realtime Clock</Description><StartTime><Timestamp dt:dt=""int"">0</Timestamp><DateUtc dt:dt=""string"">2023-03-23T10:14:40Z</DateUtc></StartTime><FrequencyChanges><FrequencyChange><Frequency dt:dt=""r8"">3312841</Frequency><Timestamp dt:dt=""r8"">21526889916</Timestamp><Current dt:dt=""r8"">0</Current><DateUtc dt:dt=""string"">2023-03-23T10:14:40Z</DateUtc></FrequencyChange></FrequencyChanges></Clock>\n";TMS_Ibrahim-49-1;75.029;1.0.0.561;1;;52680712;2.0.10.242;2.0.10.242;03-23-2023;23/03/2023 10:14;11:14:40;2.0.10.147;0;;-999999;22;25449;0;1;1218;26667;1;1;1;2;1;0;1;BlockProcFischi;BlockList;1;125;0;;-999999;32;28551;0;1;1232;29783;1;1;1;1;ProcFischi1;ListBlockFischi;40;1;1;0;1;3;Po3_B;150;2;op;3;2;44;1;40;2;0;TrialProc;2190;1309;Po3_B;347;1229;1577;ListFischi1;0;;2;203;380236;8;13;1259;381495;27;1;1259;1;732;390;1232;1;1
TMS_Ibrahim;49;1;"<?xml version=""1.0""?>\n<Clock xmlns:dt=""urn:schemas-microsoft-com:datatypes""><Description dt:dt=""string"">E-Prime Primary Realtime Clock</Description><StartTime><Timestamp dt:dt=""int"">0</Timestamp><DateUtc dt:dt=""string"">2023-03-23T10:14:40Z</DateUtc></StartTime><FrequencyChanges><FrequencyChange><Frequency dt:dt=""r8"">3312841</Frequency><Timestamp dt:dt=""r8"">21526889916</Timestamp><Current dt:dt=""r8"">0</Current><DateUtc dt:dt=""string"">2023-03-23T10:14:40Z</DateUtc></FrequencyChange></FrequencyChanges></Clock>\n";TMS_Ibrahim-49-1;75.029;1.0.0.561;1;;52680712;2.0.10.242;2.0.10.242;03-23-2023;23/03/2023 10:14;11:14:40;2.0.10.147;0;;-999999;22;25449;0;1;1218;26667;1;1;1;2;1;0;1;BlockProcFischi;BlockList;1;125;0;;-999999;32;28551;0;1;1232;29783;1;1;1;1;ProcFischi1;ListBlockFischi;41;1;1;0;2;3;Po2_B;150;2;op;3;2;33;1;41;2;0;TrialProc;1651;1575;Po2_B;8;1811;1803;ListFischi1;0;;2;203;388646;9;133;2865;391511;33;1;1841;1;1047;411;1808;1;1
TMS_Ibrahim;49;1;"<?xml version=""1.0""?>\n<Clock xmlns:dt=""urn:schemas-microsoft-com:datatypes""><Description dt:dt=""string"">E-Prime Primary Realtime Clock</Description><StartTime><Timestamp dt:dt=""int"">0</Timestamp><DateUtc dt:dt=""string"">2023-03-23T10:14:40Z</DateUtc></StartTime><FrequencyChanges><FrequencyChange><Frequency dt:dt=""r8"">3312841</Frequency><Timestamp dt:dt=""r8"">21526889916</Timestamp><Current dt:dt=""r8"">0</Current><DateUtc dt:dt=""string"">2023-03-23T10:14:40Z</DateUtc></FrequencyChange></FrequencyChanges></Clock>\n";TMS_Ibrahim-49-1;75.029;1.0.0.561;1;;52680712;2.0.10.242;2.0.10.242;03-23-2023;23/03/2023 10:14;11:14:40;2.0.10.147;0;;-999999;22;25449;0;1;1218;26667;1;1;1;2;1;0;1;BlockProcFischi;BlockList;1;125;0;;-999999;32;28551;0;1;1232;29783;1;1;1;1;ProcFischi1;ListBlockFischi;42;1;2;1;0;3;Prmod_B;75;3;ug;3;2;32;1;42;3;1;TrialProc;3123;1321;Prmod_B;149;1801;1653;ListFischi1;0;;2;201;396168;17;13;1823;397991;79;1;1823;1;1377;449;1744;1;1
TMS_Ibrahim;49;1;"<?xml version=""1.0""?>\n<Clock xmlns:dt=""urn:schemas-microsoft-com:datatypes""><Description dt:dt=""string"">E-Prime Primary Realtime Clock</Description><StartTime><Timestamp dt:dt=""int"">0</Timestamp><DateUtc dt:dt=""string"">2023-03-23T10:14:40Z</DateUtc></StartTime><FrequencyChanges><FrequencyChange><Frequency dt:dt=""r8"">3312841</Frequency><Timestamp dt:dt=""r8"">21526889916</Timestamp><Current dt:dt=""r8"">0</Current><DateUtc dt:dt=""string"">2023-03-23T10:14:40Z</DateUtc></FrequencyChange></FrequencyChanges></Clock>\n";TMS_Ibrahim-49-1;75.029;1.0.0.561;1;;52680712;2.0.10.242;2.0.10.242;03-23-2023;23/03/2023 10:14;11:14:40;2.0.10.147;0;;-999999;22;25449;0;1;1218;26667;1;1;1;2;1;0;1;BlockProcFischi;BlockList;1;125;0;;-999999;32;28551;0;1;1232;29783;1;1;1;1;ProcFischi1;ListBlockFischi;43;1;1;0;0;5;Po5_B;175;4;ug;5;2;52;1;43;4;1;TrialProc;2689;1027;Po5_B;77;1571;1494;ListFischi1;0;;5;210;405960;8;15;1599;407559;223;1;1599;1;1111;545;1376;1;1
TMS_Ibrahim;49;1;"<?xml version=""1.0""?>\n<Clock xmlns:dt=""urn:schemas-microsoft-com:datatypes""><Description dt:dt=""string"">E-Prime Primary Realtime Clock</Description><StartTime><Timestamp dt:dt=""int"">0</Timestamp><DateUtc dt:dt=""string"">2023-03-23T10:14:40Z</DateUtc></StartTime><FrequencyChanges><FrequencyChange><Frequency dt:dt=""r8"">3312841</Frequency><Timestamp dt:dt=""r8"">21526889916</Timestamp><Current dt:dt=""r8"">0</Current><DateUtc dt:dt=""string"">2023-03-23T10:14:40Z</DateUtc></FrequencyChange></FrequencyChanges></Clock>\n";TMS_Ibrahim-49-1;75.029;1.0.0.561;1;;52680712;2.0.10.242;2.0.10.242;03-23-2023;23/03/2023 10:14;11:14:40;2.0.10.147;0;;-999999;22;25449;0;1;1218;26667;1;1;1;2;1;0;1;BlockProcFischi;BlockList;1;125;0;;-999999;32;28551;0;1;1232;29783;1;1;1;1;ProcFischi1;ListBlockFischi;44;0;2;0;1;5;Pr3_B;;1;op;3;2;12;1;44;1;0;TrialProc;2582;719;Pr3_B;180;1538;1718;ListFischi1;0;;2;203;414110;15;13;1561;415671;361;1;1561;1;1156;294;1200;1;0
TMS_Ibrahim;49;1;"<?xml version=""1.0""?>\n<Clock xmlns:dt=""urn:schemas-microsoft-com:datatypes""><Description dt:dt=""string"">E-Prime Primary Realtime Clock</Description><StartTime><Timestamp dt:dt=""int"">0</Timestamp><DateUtc dt:dt=""string"">2023-03-23T10:14:40Z</DateUtc></StartTime><FrequencyChanges><FrequencyChange><Frequency dt:dt=""r8"">3312841</Frequency><Timestamp dt:dt=""r8"">21526889916</Timestamp><Current dt:dt=""r8"">0</Current><DateUtc dt:dt=""string"">2023-03-23T10:14:40Z</DateUtc></FrequencyChange></FrequencyChanges></Clock>\n";TMS_Ibrahim-49-1;75.029;1.0.0.561;1;;52680712;2.0.10.242;2.0.10.242;03-23-2023;23/03/2023 10:14;11:14:40;2.0.10.147;0;;-999999;22;25449;0;1;1218;26667;1;1;1;2;1;0;1;BlockProcFischi;BlockList;1;125;0;;-999999;32;28551;0;1;1232;29783;1;1;1;1;ProcFischi1;ListBlockFischi;45;1;1;0;0;3;Po8_B;125;2;op;3;2;37;1;45;2;0;TrialProc;1184;1250;Po8_B;138;1721;1583;ListFischi1;0;;2;203;423146;16;133;1852;424998;44;1;1740;1;1053;462;1696;1;1
TMS_Ibrahim;49;1;"<?xml version=""1.0""?>\n<Clock xmlns:dt=""urn:schemas-microsoft-com:datatypes""><Description dt:dt=""string"">E-Prime Primary Realtime Clock</Description><StartTime><Timestamp dt:dt=""int"">0</Timestamp><DateUtc dt:dt=""string"">2023-03-23T10:14:40Z</DateUtc></StartTime><FrequencyChanges><FrequencyChange><Frequency dt:dt=""r8"">3312841</Frequency><Timestamp dt:dt=""r8"">21526889916</Timestamp><Current dt:dt=""r8"">0</Current><DateUtc dt:dt=""string"">2023-03-23T10:14:40Z</DateUtc></FrequencyChange></FrequencyChanges></Clock>\n";TMS_Ibrahim-49-1;75.029;1.0.0.561;1;;52680712;2.0.10.242;2.0.10.242;03-23-2023;23/03/2023 10:14;11:14:40;2.0.10.147;0;;-999999;22;25449;0;1;1218;26667;1;1;1;2;1;0;1;BlockProcFischi;BlockList;1;125;0;;-999999;32;28551;0;1;1232;29783;1;1;1;1;ProcFischi1;ListBlockFischi;46;1;2;1;1;5;Prmod_B;100;1;op;5;2;16;1;46;1;0;TrialProc;2479;1316;Prmod_B;166;1815;1649;ListFischi1;0;;2;203;433478;13;155;3440;436918;96;1;1840;1;1967;243;1744;1;1
TMS_Ibrahim;49;1;"<?xml version=""1.0""?>\n<Clock xmlns:dt=""urn:schemas-microsoft-com:datatypes""><Description dt:dt=""string"">E-Prime Primary Realtime Clock</Description><StartTime><Timestamp dt:dt=""int"">0</Timestamp><DateUtc dt:dt=""string"">2023-03-23T10:14:40Z</DateUtc></StartTime><FrequencyChanges><FrequencyChange><Frequency dt:dt=""r8"">3312841</Frequency><Timestamp dt:dt=""r8"">21526889916</Timestamp><Current dt:dt=""r8"">0</Current><DateUtc dt:dt=""string"">2023-03-23T10:14:40Z</DateUtc></FrequencyChange></FrequencyChanges></Clock>\n";TMS_Ibrahim-49-1;75.029;1.0.0.561;1;;52680712;2.0.10.242;2.0.10.242;03-23-2023;23/03/2023 10:14;11:14:40;2.0.10.147;0;;-999999;22;25449;0;1;1218;26667;1;1;1;2;1;0;1;BlockProcFischi;BlockList;1;125;0;;-999999;32;28551;0;1;1232;29783;1;1;1;1;ProcFischi1;ListBlockFischi;47;0;1;1;0;3;Pomod_B;;2;op;5;2;48;1;47;2;0;TrialProc;2830;1315;Pomod_B;439;2113;1674;ListFischi1;0;;2;203;443261;13;153;2505;445766;25;1;2137;1;1540;388;2112;1;0
TMS_Ibrahim;49;1;"<?xml version=""1.0""?>\n<Clock xmlns:dt=""urn:schemas-microsoft-com:datatypes""><Description dt:dt=""string"">E-Prime Primary Realtime Clock</Description><StartTime><Timestamp dt:dt=""int"">0</Timestamp><DateUtc dt:dt=""string"">2023-03-23T10:14:40Z</DateUtc></StartTime><FrequencyChanges><FrequencyChange><Frequency dt:dt=""r8"">3312841</Frequency><Timestamp dt:dt=""r8"">21526889916</Timestamp><Current dt:dt=""r8"">0</Current><DateUtc dt:dt=""string"">2023-03-23T10:14:40Z</DateUtc></FrequencyChange></FrequencyChanges></Clock>\n";TMS_Ibrahim-49-1;75.029;1.0.0.561;1;;52680712;2.0.10.242;2.0.10.242;03-23-2023;23/03/2023 10:14;11:14:40;2.0.10.147;0;;-999999;22;25449;0;1;1218;26667;1;1;1;2;1;0;1;BlockProcFischi;BlockList;1;125;0;;-999999;32;28551;0;1;1232;29783;1;1;1;1;ProcFischi1;ListBlockFischi;48;0;2;0;1;3;Pr2_B;;3;ug;0;2;17;1;48;3;1;TrialProc;2702;715;Pr2_B;262;1509;1246;ListFischi1;0;;2;203;453177;13;31;4909;458086;1;1;1;1;1136;239;0;0;0
TMS_Ibrahim;49;1;"<?xml version=""1.0""?>\n<Clock xmlns:dt=""urn:schemas-microsoft-com:datatypes""><Description dt:dt=""string"">E-Prime Primary Realtime Clock</Description><StartTime><Timestamp dt:dt=""int"">0</Timestamp><DateUtc dt:dt=""string"">2023-03-23T10:14:40Z</DateUtc></StartTime><FrequencyChanges><FrequencyChange><Frequency dt:dt=""r8"">3312841</Frequency><Timestamp dt:dt=""r8"">21526889916</Timestamp><Current dt:dt=""r8"">0</Current><DateUtc dt:dt=""string"">2023-03-23T10:14:40Z</DateUtc></FrequencyChange></FrequencyChanges></Clock>\n";TMS_Ibrahim-49-1;75.029;1.0.0.561;1;;52680712;2.0.10.242;2.0.10.242;03-23-2023;23/03/2023 10:14;11:14:40;2.0.10.147;0;;-999999;22;25449;0;1;1218;26667;1;1;1;2;1;0;1;BlockProcFischi;BlockList;1;125;0;;-999999;32;28551;0;1;1232;29783;1;1;1;1;ProcFischi1;ListBlockFischi;49;0;2;0;2;5;Pr4_B;;1;op;3;2;8;1;49;1;0;TrialProc;3475;676;Pr4_B;137;1386;1249;ListFischi1;0;;2;203;461614;13;13;1415;463029;120;1;1415;1;1040;488;1295;1;0
TMS_Ibrahim;49;1;"<?xml version=""1.0""?>\n<Clock xmlns:dt=""urn:schemas-microsoft-com:datatypes""><Description dt:dt=""string"">E-Prime Primary Realtime Clock</Description><StartTime><Timestamp dt:dt=""int"">0</Timestamp><DateUtc dt:dt=""string"">2023-03-23T10:14:40Z</DateUtc></StartTime><FrequencyChanges><FrequencyChange><Frequency dt:dt=""r8"">3312841</Frequency><Timestamp dt:dt=""r8"">21526889916</Timestamp><Current dt:dt=""r8"">0</Current><DateUtc dt:dt=""string"">2023-03-23T10:14:40Z</DateUtc></FrequencyChange></FrequencyChanges></Clock>\n";TMS_Ibrahim-49-1;75.029;1.0.0.561;1;;52680712;2.0.10.242;2.0.10.242;03-23-2023;23/03/2023 10:14;11:14:40;2.0.10.147;0;;-999999;22;25449;0;1;1218;26667;1;1;1;2;1;0;1;BlockProcFischi;BlockList;1;125;0;;-999999;32;28551;0;1;1232;29783;1;1;1;1;ProcFischi1;ListBlockFischi;50;0;1;0;0;3;Po4_B;;2;op;0;2;40;1;50;2;0;TrialProc;12972;1342;Po4_B;144;1570;1715;ListFischi1;0;;2;203;470851;12;311;12818;483669;1;1;1;1;807;400;0;0;0
TMS_Ibrahim;49;1;"<?xml version=""1.0""?>\n<Clock xmlns:dt=""urn:schemas-microsoft-com:datatypes""><Description dt:dt=""string"">E-Prime Primary Realtime Clock</Description><StartTime><Timestamp dt:dt=""int"">0</Timestamp><DateUtc dt:dt=""string"">2023-03-23T10:14:40Z</DateUtc></StartTime><FrequencyChanges><FrequencyChange><Frequency dt:dt=""r8"">3312841</Frequency><Timestamp dt:dt=""r8"">21526889916</Timestamp><Current dt:dt=""r8"">0</Current><DateUtc dt:dt=""string"">2023-03-23T10:14:40Z</DateUtc></FrequencyChange></FrequencyChanges></Clock>\n";TMS_Ibrahim-49-1;75.029;1.0.0.561;1;;52680712;2.0.10.242;2.0.10.242;03-23-2023;23/03/2023 10:14;11:14:40;2.0.10.147;0;;-999999;22;25449;0;1;1218;26667;1;1;1;2;1;0;1;BlockProcFischi;BlockList;1;125;0;;-999999;32;28551;0;1;1232;29783;1;1;1;1;ProcFischi1;ListBlockFischi;51;1;1;0;0;5;Po5_B;150;4;ug;5;2;62;1;51;4;1;TrialProc;2774;997;Po5_B;75;1415;1490;ListFischi1;0;;4;210;490518;18;155;2959;493477;207;1;1439;1;647;512;1232;1;1
TMS_Ibrahim;49;1;"<?xml version=""1.0""?>\n<Clock xmlns:dt=""urn:schemas-microsoft-com:datatypes""><Description dt:dt=""string"">E-Prime Primary Realtime Clock</Description><StartTime><Timestamp dt:dt=""int"">0</Timestamp><DateUtc dt:dt=""string"">2023-03-23T10:14:40Z</DateUtc></StartTime><FrequencyChanges><FrequencyChange><Frequency dt:dt=""r8"">3312841</Frequency><Timestamp dt:dt=""r8"">21526889916</Timestamp><Current dt:dt=""r8"">0</Current><DateUtc dt:dt=""string"">2023-03-23T10:14:40Z</DateUtc></FrequencyChange></FrequencyChanges></Clock>\n";TMS_Ibrahim-49-1;75.029;1.0.0.561;1;;52680712;2.0.10.242;2.0.10.242;03-23-2023;23/03/2023 10:14;11:14:40;2.0.10.147;0;;-999999;22;25449;0;1;1218;26667;1;1;1;2;1;0;1;BlockProcFischi;BlockList;1;125;0;;-999999;32;28551;0;1;1232;29783;1;1;1;1;ProcFischi1;ListBlockFischi;52;1;2;0;1;3;Pr3_B;75;3;ug;3;2;23;1;52;3;1;TrialProc;1918;714;Pr3_B;18;1696;1714;ListFischi1;0;;2;201;498121;12;133;2300;500421;236;1;1724;1;899;434;1488;1;1
TMS_Ibrahim;49;1;"<?xml version=""1.0""?>\n<Clock xmlns:dt=""urn:schemas-microsoft-com:datatypes""><Description dt:dt=""string"">E-Prime Primary Realtime Clock</Description><StartTime><Timestamp dt:dt=""int"">0</Timestamp><DateUtc dt:dt=""string"">2023-03-23T10:14:40Z</DateUtc></StartTime><FrequencyChanges><FrequencyChange><Frequency dt:dt=""r8"">3312841</Frequency><Timestamp dt:dt=""r8"">21526889916</Timestamp><Current dt:dt=""r8"">0</Current><DateUtc dt:dt=""string"">2023-03-23T10:14:40Z</DateUtc></FrequencyChange></FrequencyChanges></Clock>\n";TMS_Ibrahim-49-1;75.029;1.0.0.561;1;;52680712;2.0.10.242;2.0.10.242;03-23-2023;23/03/2023 10:14;11:14:40;2.0.10.147;0;;-999999;22;25449;0;1;1218;26667;1;1;1;2;1;0;1;BlockProcFischi;BlockList;1;125;0;;-999999;32;28551;0;1;1232;29783;1;1;1;1;ProcFischi1;ListBlockFischi;53;1;1;0;0;3;Po8_B;125;2;op;3;2;42;1;53;2;0;TrialProc;2835;1245;Po8_B;137;1440;1577;ListFischi1;0;;2;203;507201;9;133;2083;509284;83;1;1475;1;525;475;1392;1;1
TMS_Ibrahim;49;1;"<?xml version=""1.0""?>\n<Clock xmlns:dt=""urn:schemas-microsoft-com:datatypes""><Description dt:dt=""string"">E-Prime Primary Realtime Clock</Description><StartTime><Timestamp dt:dt=""int"">0</Timestamp><DateUtc dt:dt=""string"">2023-03-23T10:14:40Z</DateUtc></StartTime><FrequencyChanges><FrequencyChange><Frequency dt:dt=""r8"">3312841</Frequency><Timestamp dt:dt=""r8"">21526889916</Timestamp><Current dt:dt=""r8"">0</Current><DateUtc dt:dt=""string"">2023-03-23T10:14:40Z</DateUtc></FrequencyChange></FrequencyChanges></Clock>\n";TMS_Ibrahim-49-1;75.029;1.0.0.561;1;;52680712;2.0.10.242;2.0.10.242;03-23-2023;23/03/2023 10:14;11:14:40;2.0.10.147;0;;-999999;22;25449;0;1;1218;26667;1;1;1;2;1;0;1;BlockProcFischi;BlockList;1;125;0;;-999999;32;28551;0;1;1232;29783;1;1;1;1;ProcFischi1;ListBlockFischi;54;1;2;0;0;3;Pr4_B;50;3;ug;3;2;29;1;54;3;1;TrialProc;3956;672;Pr4_B;123;1367;1245;ListFischi1;0;;2;203;515624;9;13;1388;517012;124;1;1388;1;992;506;1264;1;1
TMS_Ibrahim;49;1;"<?xml version=""1.0""?>\n<Clock xmlns:dt=""urn:schemas-microsoft-com:datatypes""><Description dt:dt=""string"">E-Prime Primary Realtime Clock</Description><StartTime><Timestamp dt:dt=""int"">0</Timestamp><DateUtc dt:dt=""string"">2023-03-23T10:14:40Z</DateUtc></StartTime><FrequencyChanges><FrequencyChange><Frequency dt:dt=""r8"">3312841</Frequency><Timestamp dt:dt=""r8"">21526889916</Timestamp><Current dt:dt=""r8"">0</Current><DateUtc dt:dt=""string"">2023-03-23T10:14:40Z</DateUtc></FrequencyChange></FrequencyChanges></Clock>\n";TMS_Ibrahim-49-1;75.029;1.0.0.561;1;;52680712;2.0.10.242;2.0.10.242;03-23-2023;23/03/2023 10:14;11:14:40;2.0.10.147;0;;-999999;22;25449;0;1;1218;26667;1;1;1;2;1;0;1;BlockProcFischi;BlockList;1;125;0;;-999999;32;28551;0;1;1232;29783;1;1;1;1;ProcFischi1;ListBlockFischi;55;1;1;0;0;3;Po2_B;125;2;op;3;2;43;1;55;2;0;TrialProc;2318;1576;Po2_B;183;1620;1803;ListFischi1;0;;2;203;524474;9;13;1642;526116;90;1;1642;1;648;517;1552;1;1
TMS_Ibrahim;49;1;"<?xml version=""1.0""?>\n<Clock xmlns:dt=""urn:schemas-microsoft-com:datatypes""><Description dt:dt=""string"">E-Prime Primary Realtime Clock</Description><StartTime><Timestamp dt:dt=""int"">0</Timestamp><DateUtc dt:dt=""string"">2023-03-23T10:14:40Z</DateUtc></StartTime><FrequencyChanges><FrequencyChange><Frequency dt:dt=""r8"">3312841</Frequency><Timestamp dt:dt=""r8"">21526889916</Timestamp><Current dt:dt=""r8"">0</Current><DateUtc dt:dt=""string"">2023-03-23T10:14:40Z</DateUtc></FrequencyChange></FrequencyChanges></Clock>\n";TMS_Ibrahim-49-1;75.029;1.0.0.561;1;;52680712;2.0.10.242;2.0.10.242;03-23-2023;23/03/2023 10:14;11:14:40;2.0.10.147;0;;-999999;22;25449;0;1;1218;26667;1;1;1;2;1;0;1;BlockProcFischi;BlockList;1;125;0;;-999999;32;28551;0;1;1232;29783;1;1;1;1;ProcFischi1;ListBlockFischi;56;1;1;0;0;5;Po2_B;125;4;ug;5;2;49;1;56;4;1;TrialProc;1469;1579;Po2_B;28;1778;1806;ListFischi1;0;;2;203;533202;11;15;1810;535012;162;1;1810;1;1442;552;1648;1;1
TMS_Ibrahim;49;1;"<?xml version=""1.0""?>\n<Clock xmlns:dt=""urn:schemas-microsoft-com:datatypes""><Description dt:dt=""string"">E-Prime Primary Realtime Clock</Description><StartTime><Timestamp dt:dt=""int"">0</Timestamp><DateUtc dt:dt=""string"">2023-03-23T10:14:40Z</DateUtc></StartTime><FrequencyChanges><FrequencyChange><Frequency dt:dt=""r8"">3312841</Frequency><Timestamp dt:dt=""r8"">21526889916</Timestamp><Current dt:dt=""r8"">0</Current><DateUtc dt:dt=""string"">2023-03-23T10:14:40Z</DateUtc></FrequencyChange></FrequencyChanges></Clock>\n";TMS_Ibrahim-49-1;75.029;1.0.0.561;1;;52680712;2.0.10.242;2.0.10.242;03-23-2023;23/03/2023 10:14;11:14:40;2.0.10.147;0;;-999999;22;25449;0;1;1218;26667;1;1;1;2;1;0;1;BlockProcFischi;BlockList;1;125;0;;-999999;32;28551;0;1;1232;29783;1;1;1;1;ProcFischi1;ListBlockFischi;57;1;2;0;1;3;Pr4_B;50;3;ug;3;2;24;1;57;3;1;TrialProc;1811;674;Pr4_B;291;1539;1247;ListFischi1;0;;2;203;541678;12;13;1574;543252;6;1;1574;1;1298;510;1568;1;1
TMS_Ibrahim;49;1;"<?xml version=""1.0""?>\n<Clock xmlns:dt=""urn:schemas-microsoft-com:datatypes""><Description dt:dt=""string"">E-Prime Primary Realtime Clock</Description><StartTime><Timestamp dt:dt=""int"">0</Timestamp><DateUtc dt:dt=""string"">2023-03-23T10:14:40Z</DateUtc></StartTime><FrequencyChanges><FrequencyChange><Frequency dt:dt=""r8"">3312841</Frequency><Timestamp dt:dt=""r8"">21526889916</Timestamp><Current dt:dt=""r8"">0</Current><DateUtc dt:dt=""string"">2023-03-23T10:14:40Z</DateUtc></FrequencyChange></FrequencyChanges></Clock>\n";TMS_Ibrahim-49-1;75.029;1.0.0.561;1;;52680712;2.0.10.242;2.0.10.242;03-23-2023;23/03/2023 10:14;11:14:40;2.0.10.147;0;;-999999;22;25449;0;1;1218;26667;1;1;1;2;1;0;1;BlockProcFischi;BlockList;1;125;0;;-999999;32;28551;0;1;1232;29783;1;1;1;1;ProcFischi1;ListBlockFischi;58;1;1;0;0;5;Po5_B;100;4;ug;5;2;57;1;58;4;1;TrialProc;1578;983;Po5_B;196;1281;1477;ListFischi1;0;;2;203;550032;15;15;1315;551347;51;1;1315;1;978;495;1264;1;1
TMS_Ibrahim;49;1;"<?xml version=""1.0""?>\n<Clock xmlns:dt=""urn:schemas-microsoft-com:datatypes""><Description dt:dt=""string"">E-Prime Primary Realtime Clock</Description><StartTime><Timestamp dt:dt=""int"">0</Timestamp><DateUtc dt:dt=""string"">2023-03-23T10:14:40Z</DateUtc></StartTime><FrequencyChanges><FrequencyChange><Frequency dt:dt=""r8"">3312841</Frequency><Timestamp dt:dt=""r8"">21526889916</Timestamp><Current dt:dt=""r8"">0</Current><DateUtc dt:dt=""string"">2023-03-23T10:14:40Z</DateUtc></FrequencyChange></FrequencyChanges></Clock>\n";TMS_Ibrahim-49-1;75.029;1.0.0.561;1;;52680712;2.0.10.242;2.0.10.242;03-23-2023;23/03/2023 10:14;11:14:40;2.0.10.147;0;;-999999;22;25449;0;1;1218;26667;1;1;1;2;1;0;1;BlockProcFischi;BlockList;1;125;0;;-999999;32;28551;0;1;1232;29783;1;1;1;1;ProcFischi1;ListBlockFischi;59;1;1;0;1;5;Po8_B;100;4;ug;5;2;53;1;59;4;1;TrialProc;3356;1248;Po8_B;189;1390;1580;ListFischi1;0;;2;201;557713;11;155;2722;560435;194;1;1410;1;1433;403;1216;1;1
TMS_Ibrahim;49;1;"<?xml version=""1.0""?>\n<Clock xmlns:dt=""urn:schemas-microsoft-com:datatypes""><Description dt:dt=""string"">E-Prime Primary Realtime Clock</Description><StartTime><Timestamp dt:dt=""int"">0</Timestamp><DateUtc dt:dt=""string"">2023-03-23T10:14:40Z</DateUtc></StartTime><FrequencyChanges><FrequencyChange><Frequency dt:dt=""r8"">3312841</Frequency><Timestamp dt:dt=""r8"">21526889916</Timestamp><Current dt:dt=""r8"">0</Current><DateUtc dt:dt=""string"">2023-03-23T10:14:40Z</DateUtc></FrequencyChange></FrequencyChanges></Clock>\n";TMS_Ibrahim-49-1;75.029;1.0.0.561;1;;52680712;2.0.10.242;2.0.10.242;03-23-2023;23/03/2023 10:14;11:14:40;2.0.10.147;0;;-999999;22;25449;0;1;1218;26667;1;1;1;2;1;0;1;BlockProcFischi;BlockList;1;125;0;;-999999;32;28551;0;1;1232;29783;1;1;1;1;ProcFischi1;ListBlockFischi;60;1;2;0;2;3;Pr3_B;50;3;ug;3;2;28;1;60;3;1;TrialProc;2249;729;Pr3_B;90;1636;1727;ListFischi1;0;;4;210;567799;14;13;1660;569459;44;1;1660;1;1519;303;1616;1;1
TMS_Ibrahim;49;1;"<?xml version=""1.0""?>\n<Clock xmlns:dt=""urn:schemas-microsoft-com:datatypes""><Description dt:dt=""string"">E-Prime Primary Realtime Clock</Description><StartTime><Timestamp dt:dt=""int"">0</Timestamp><DateUtc dt:dt=""string"">2023-03-23T10:14:40Z</DateUtc></StartTime><FrequencyChanges><FrequencyChange><Frequency dt:dt=""r8"">3312841</Frequency><Timestamp dt:dt=""r8"">21526889916</Timestamp><Current dt:dt=""r8"">0</Current><DateUtc dt:dt=""string"">2023-03-23T10:14:40Z</DateUtc></FrequencyChange></FrequencyChanges></Clock>\n";TMS_Ibrahim-49-1;75.029;1.0.0.561;1;;52680712;2.0.10.242;2.0.10.242;03-23-2023;23/03/2023 10:14;11:14:40;2.0.10.147;0;;-999999;22;25449;0;1;1218;26667;1;1;1;2;1;0;1;BlockProcFischi;BlockList;1;125;0;;-999999;32;28551;0;1;1232;29783;1;1;1;1;ProcFischi1;ListBlockFischi;61;1;1;0;2;5;Po3_B;100;4;ug;5;2;50;1;61;4;1;TrialProc;3087;1314;Po3_B;93;1675;1581;ListFischi1;0;;2;203;577543;13;15;1708;579251;76;1;1708;1;2808;491;1632;1;1
TMS_Ibrahim;49;1;"<?xml version=""1.0""?>\n<Clock xmlns:dt=""urn:schemas-microsoft-com:datatypes""><Description dt:dt=""string"">E-Prime Primary Realtime Clock</Description><StartTime><Timestamp dt:dt=""int"">0</Timestamp><DateUtc dt:dt=""string"">2023-03-23T10:14:40Z</DateUtc></StartTime><FrequencyChanges><FrequencyChange><Frequency dt:dt=""r8"">3312841</Frequency><Timestamp dt:dt=""r8"">21526889916</Timestamp><Current dt:dt=""r8"">0</Current><DateUtc dt:dt=""string"">2023-03-23T10:14:40Z</DateUtc></FrequencyChange></FrequencyChanges></Clock>\n";TMS_Ibrahim-49-1;75.029;1.0.0.561;1;;52680712;2.0.10.242;2.0.10.242;03-23-2023;23/03/2023 10:14;11:14:40;2.0.10.147;0;;-999999;22;25449;0;1;1218;26667;1;1;1;2;1;0;1;BlockProcFischi;BlockList;1;125;0;;-999999;32;28551;0;1;1232;29783;1;1;1;1;ProcFischi1;ListBlockFischi;62;1;2;0;2;5;Pr3_B;100;1;op;5;2;7;1;62;1;0;TrialProc;1958;717;Pr3_B;178;1894;1715;ListFischi1;0;;2;203;589445;13;15;1917;591362;142;1;1917;1;758;318;1775;1;1
TMS_Ibrahim;49;1;"<?xml version=""1.0""?>\n<Clock xmlns:dt=""urn:schemas-microsoft-com:datatypes""><Description dt:dt=""string"">E-Prime Primary Realtime Clock</Description><StartTime><Timestamp dt:dt=""int"">0</Timestamp><DateUtc dt:dt=""string"">2023-03-23T10:14:40Z</DateUtc></StartTime><FrequencyChanges><FrequencyChange><Frequency dt:dt=""r8"">3312841</Frequency><Timestamp dt:dt=""r8"">21526889916</Timestamp><Current dt:dt=""r8"">0</Current><DateUtc dt:dt=""string"">2023-03-23T10:14:40Z</DateUtc></FrequencyChange></FrequencyChanges></Clock>\n";TMS_Ibrahim-49-1;75.029;1.0.0.561;1;;52680712;2.0.10.242;2.0.10.242;03-23-2023;23/03/2023 10:14;11:14:40;2.0.10.147;0;;-999999;22;25449;0;1;1218;26667;1;1;1;2;1;0;1;BlockProcFischi;BlockList;1;125;0;;-999999;32;28551;0;1;1232;29783;1;1;1;1;ProcFischi1;ListBlockFischi;63;1;1;0;2;5;Po3_B;100;4;ug;5;2;55;1;63;4;1;TrialProc;3153;1316;Po3_B;44;1538;1583;ListFischi1;0;;2;203;598387;15;155;2928;601315;96;1;1567;1;1290;259;1471;1;1
TMS_Ibrahim;49;1;"<?xml version=""1.0""?>\n<Clock xmlns:dt=""urn:schemas-microsoft-com:datatypes""><Description dt:dt=""string"">E-Prime Primary Realtime Clock</Description><StartTime><Timestamp dt:dt=""int"">0</Timestamp><DateUtc dt:dt=""string"">2023-03-23T10:14:40Z</DateUtc></StartTime><FrequencyChanges><FrequencyChange><Frequency dt:dt=""r8"">3312841</Frequency><Timestamp dt:dt=""r8"">21526889916</Timestamp><Current dt:dt=""r8"">0</Current><DateUtc dt:dt=""string"">2023-03-23T10:14:40Z</DateUtc></FrequencyChange></FrequencyChanges></Clock>\n";TMS_Ibrahim-49-1;75.029;1.0.0.561;1;;52680712;2.0.10.242;2.0.10.242;03-23-2023;23/03/2023 10:14;11:14:40;2.0.10.147;0;;-999999;22;25449;0;1;1218;26667;1;1;1;2;1;0;1;BlockProcFischi;BlockList;1;125;0;;-999999;32;28551;0;1;1232;29783;1;1;1;1;ProcFischi1;ListBlockFischi;64;1;1;0;1;3;Po2_B;125;2;op;3;2;38;1;64;2;0;TrialProc;3378;1582;Po2_B;315;1493;1808;ListFischi1;0;;2;201;606105;14;133;3769;609874;169;1;1513;1;1495;503;1344;1;1
TMS_Ibrahim;49;3;"<?xml version=""1.0""?>\n<Clock xmlns:dt=""urn:schemas-microsoft-com:datatypes""><Description dt:dt=""string"">E-Prime Primary Realtime Clock</Description><StartTime><Timestamp dt:dt=""int"">0</Timestamp><DateUtc dt:dt=""string"">2023-03-23T11:17:21Z</DateUtc></StartTime><FrequencyChanges><FrequencyChange><Frequency dt:dt=""r8"">3312841</Frequency><Timestamp dt:dt=""r8"">33985471441</Timestamp><Current dt:dt=""r8"">0</Current><DateUtc dt:dt=""string"">2023-03-23T11:17:21Z</DateUtc></FrequencyChange></FrequencyChanges></Clock>\n";TMS_Ibrahim-49-3;75.029;1.0.0.561;1;;-373611798;2.0.10.242;2.0.10.242;03-23-2023;23/03/2023 11:17;12:17:21;2.0.10.147;0;;-999999;27;23462;0;1;2360;25822;1;1;1;2;1;2;1;BlockProcFischi;BlockList;1;200;0;;-999999;32;27155;0;1;550;27705;1;1;1;1;ProcFischi1;ListBlockFischi;1;1;2;0;0;3;Pr2_B;250;3;ug;3;2;17;1;1;3;1;TrialProc;769;741;Pr2_B;186;1460;1274;ListFischi1;0;;5;210;29665;28;13;1489;31154;337;1;1489;1;425;383;1152;1;1
TMS_Ibrahim;49;3;"<?xml version=""1.0""?>\n<Clock xmlns:dt=""urn:schemas-microsoft-com:datatypes""><Description dt:dt=""string"">E-Prime Primary Realtime Clock</Description><StartTime><Timestamp dt:dt=""int"">0</Timestamp><DateUtc dt:dt=""string"">2023-03-23T11:17:21Z</DateUtc></StartTime><FrequencyChanges><FrequencyChange><Frequency dt:dt=""r8"">3312841</Frequency><Timestamp dt:dt=""r8"">33985471441</Timestamp><Current dt:dt=""r8"">0</Current><DateUtc dt:dt=""string"">2023-03-23T11:17:21Z</DateUtc></FrequencyChange></FrequencyChanges></Clock>\n";TMS_Ibrahim-49-3;75.029;1.0.0.561;1;;-373611798;2.0.10.242;2.0.10.242;03-23-2023;23/03/2023 11:17;12:17:21;2.0.10.147;0;;-999999;27;23462;0;1;2360;25822;1;1;1;2;1;2;1;BlockProcFischi;BlockList;1;200;0;;-999999;32;27155;0;1;550;27705;1;1;1;1;ProcFischi1;ListBlockFischi;2;1;1;0;0;3;Po8_B;250;2;op;3;2;42;1;2;2;0;TrialProc;1237;1251;Po8_B;123;1707;1584;ListFischi1;0;;1;206;36943;14;13;1731;38674;116;1;1731;1;533;354;1615;1;1
TMS_Ibrahim;49;3;"<?xml version=""1.0""?>\n<Clock xmlns:dt=""urn:schemas-microsoft-com:datatypes""><Description dt:dt=""string"">E-Prime Primary Realtime Clock</Description><StartTime><Timestamp dt:dt=""int"">0</Timestamp><DateUtc dt:dt=""string"">2023-03-23T11:17:21Z</DateUtc></StartTime><FrequencyChanges><FrequencyChange><Frequency dt:dt=""r8"">3312841</Frequency><Timestamp dt:dt=""r8"">33985471441</Timestamp><Current dt:dt=""r8"">0</Current><DateUtc dt:dt=""string"">2023-03-23T11:17:21Z</DateUtc></FrequencyChange></FrequencyChanges></Clock>\n";TMS_Ibrahim-49-3;75.029;1.0.0.561;1;;-373611798;2.0.10.242;2.0.10.242;03-23-2023;23/03/2023 11:17;12:17:21;2.0.10.147;0;;-999999;27;23462;0;1;2360;25822;1;1;1;2;1;2;1;BlockProcFischi;BlockList;1;200;0;;-999999;32;27155;0;1;550;27705;1;1;1;1;ProcFischi1;ListBlockFischi;3;1;2;0;0;3;Pr5_B;225;3;ug;3;2;30;1;3;3;1;TrialProc;951;677;Pr5_B;301;1575;1275;ListFischi1;0;;2;203;44141;13;13;1605;45746;165;1;1605;1;476;493;1440;1;1
TMS_Ibrahim;49;3;"<?xml version=""1.0""?>\n<Clock xmlns:dt=""urn:schemas-microsoft-com:datatypes""><Description dt:dt=""string"">E-Prime Primary Realtime Clock</Description><StartTime><Timestamp dt:dt=""int"">0</Timestamp><DateUtc dt:dt=""string"">2023-03-23T11:17:21Z</DateUtc></StartTime><FrequencyChanges><FrequencyChange><Frequency dt:dt=""r8"">3312841</Frequency><Timestamp dt:dt=""r8"">33985471441</Timestamp><Current dt:dt=""r8"">0</Current><DateUtc dt:dt=""string"">2023-03-23T11:17:21Z</DateUtc></FrequencyChange></FrequencyChanges></Clock>\n";TMS_Ibrahim-49-3;75.029;1.0.0.561;1;;-373611798;2.0.10.242;2.0.10.242;03-23-2023;23/03/2023 11:17;12:17:21;2.0.10.147;0;;-999999;27;23462;0;1;2360;25822;1;1;1;2;1;2;1;BlockProcFischi;BlockList;1;200;0;;-999999;32;27155;0;1;550;27705;1;1;1;1;ProcFischi1;ListBlockFischi;4;1;2;1;0;5;Prmod_B;250;1;op;5;2;16;1;4;1;0;TrialProc;539;1317;Prmod_B;227;1878;1651;ListFischi1;0;;1;201;51378;14;15;1903;53281;79;1;1903;1;1508;408;1824;1;1
TMS_Ibrahim;49;3;"<?xml version=""1.0""?>\n<Clock xmlns:dt=""urn:schemas-microsoft-com:datatypes""><Description dt:dt=""string"">E-Prime Primary Realtime Clock</Description><StartTime><Timestamp dt:dt=""int"">0</Timestamp><DateUtc dt:dt=""string"">2023-03-23T11:17:21Z</DateUtc></StartTime><FrequencyChanges><FrequencyChange><Frequency dt:dt=""r8"">3312841</Frequency><Timestamp dt:dt=""r8"">33985471441</Timestamp><Current dt:dt=""r8"">0</Current><DateUtc dt:dt=""string"">2023-03-23T11:17:21Z</DateUtc></FrequencyChange></FrequencyChanges></Clock>\n";TMS_Ibrahim-49-3;75.029;1.0.0.561;1;;-373611798;2.0.10.242;2.0.10.242;03-23-2023;23/03/2023 11:17;12:17:21;2.0.10.147;0;;-999999;27;23462;0;1;2360;25822;1;1;1;2;1;2;1;BlockProcFischi;BlockList;1;200;0;;-999999;32;27155;0;1;550;27705;1;1;1;1;ProcFischi1;ListBlockFischi;5;1;1;0;0;5;Po8_B;250;4;ug;5;2;58;1;5;4;1;TrialProc;544;1247;Po8_B;421;2002;1581;ListFischi1;0;;2;203;58390;12;15;2027;60417;139;1;2027;1;921;510;1888;1;1
TMS_Ibrahim;49;3;"<?xml version=""1.0""?>\n<Clock xmlns:dt=""urn:schemas-microsoft-com:datatypes""><Description dt:dt=""string"">E-Prime Primary Realtime Clock</Description><StartTime><Timestamp dt:dt=""int"">0</Timestamp><DateUtc dt:dt=""string"">2023-03-23T11:17:21Z</DateUtc></StartTime><FrequencyChanges><FrequencyChange><Frequency dt:dt=""r8"">3312841</Frequency><Timestamp dt:dt=""r8"">33985471441</Timestamp><Current dt:dt=""r8"">0</Current><DateUtc dt:dt=""string"">2023-03-23T11:17:21Z</DateUtc></FrequencyChange></FrequencyChanges></Clock>\n";TMS_Ibrahim-49-3;75.029;1.0.0.561;1;;-373611798;2.0.10.242;2.0.10.242;03-23-2023;23/03/2023 11:17;12:17:21;2.0.10.147;0;;-999999;27;23462;0;1;2360;25822;1;1;1;2;1;2;1;BlockProcFischi;BlockList;1;200;0;;-999999;32;27155;0;1;550;27705;1;1;1;1;ProcFischi1;ListBlockFischi;6;1;1;0;0;3;Po4_B;225;2;op;3;2;40;1;6;2;0;TrialProc;643;1341;Po4_B;179;1892;1714;ListFischi1;0;;2;201;65480;13;133;2793;68273;233;1;1913;1;415;409;1680;1;1
TMS_Ibrahim;49;3;"<?xml version=""1.0""?>\n<Clock xmlns:dt=""urn:schemas-microsoft-com:datatypes""><Description dt:dt=""string"">E-Prime Primary Realtime Clock</Description><StartTime><Timestamp dt:dt=""int"">0</Timestamp><DateUtc dt:dt=""string"">2023-03-23T11:17:21Z</DateUtc></StartTime><FrequencyChanges><FrequencyChange><Frequency dt:dt=""r8"">3312841</Frequency><Timestamp dt:dt=""r8"">33985471441</Timestamp><Current dt:dt=""r8"">0</Current><DateUtc dt:dt=""string"">2023-03-23T11:17:21Z</DateUtc></FrequencyChange></FrequencyChanges></Clock>\n";TMS_Ibrahim-49-3;75.029;1.0.0.561;1;;-373611798;2.0.10.242;2.0.10.242;03-23-2023;23/03/2023 11:17;12:17:21;2.0.10.147;0;;-999999;27;23462;0;1;2360;25822;1;1;1;2;1;2;1;BlockProcFischi;BlockList;1;200;0;;-999999;32;27155;0;1;550;27705;1;1;1;1;ProcFischi1;ListBlockFischi;7;0;2;0;0;5;Pr5_B;;1;op;1;2;14;1;7;1;0;TrialProc;3855;672;Pr5_B;179;1892;1272;ListFischi1;0;;2;203;72001;9;15;2128;74129;80;1;1;1;550;347;-79;1;0
TMS_Ibrahim;49;3;"<?xml version=""1.0""?>\n<Clock xmlns:dt=""urn:schemas-microsoft-com:datatypes""><Description dt:dt=""string"">E-Prime Primary Realtime Clock</Description><StartTime><Timestamp dt:dt=""int"">0</Timestamp><DateUtc dt:dt=""string"">2023-03-23T11:17:21Z</DateUtc></StartTime><FrequencyChanges><FrequencyChange><Frequency dt:dt=""r8"">3312841</Frequency><Timestamp dt:dt=""r8"">33985471441</Timestamp><Current dt:dt=""r8"">0</Current><DateUtc dt:dt=""string"">2023-03-23T11:17:21Z</DateUtc></FrequencyChange></FrequencyChanges></Clock>\n";TMS_Ibrahim-49-3;75.029;1.0.0.561;1;;-373611798;2.0.10.242;2.0.10.242;03-23-2023;23/03/2023 11:17;12:17:21;2.0.10.147;0;;-999999;27;23462;0;1;2360;25822;1;1;1;2;1;2;1;BlockProcFischi;BlockList;1;200;0;;-999999;32;27155;0;1;550;27705;1;1;1;1;ProcFischi1;ListBlockFischi;8;1;1;0;0;3;Po2_B;200;2;op;3;2;38;1;8;2;0;TrialProc;550;1586;Po2_B;25;1838;1814;ListFischi1;0;;1;201;79736;18;13;1865;81601;25;1;1865;1;588;539;1840;1;1
TMS_Ibrahim;49;3;"<?xml version=""1.0""?>\n<Clock xmlns:dt=""urn:schemas-microsoft-com:datatypes""><Description dt:dt=""string"">E-Prime Primary Realtime Clock</Description><StartTime><Timestamp dt:dt=""int"">0</Timestamp><DateUtc dt:dt=""string"">2023-03-23T11:17:21Z</DateUtc></StartTime><FrequencyChanges><FrequencyChange><Frequency dt:dt=""r8"">3312841</Frequency><Timestamp dt:dt=""r8"">33985471441</Timestamp><Current dt:dt=""r8"">0</Current><DateUtc dt:dt=""string"">2023-03-23T11:17:21Z</DateUtc></FrequencyChange></FrequencyChanges></Clock>\n";TMS_Ibrahim-49-3;75.029;1.0.0.561;1;;-373611798;2.0.10.242;2.0.10.242;03-23-2023;23/03/2023 11:17;12:17:21;2.0.10.147;0;;-999999;27;23462;0;1;2360;25822;1;1;1;2;1;2;1;BlockProcFischi;BlockList;1;200;0;;-999999;32;27155;0;1;550;27705;1;1;1;1;ProcFischi1;ListBlockFischi;9;1;1;0;1;5;Po5_B;250;4;ug;5;2;57;1;9;4;1;TrialProc;485;979;Po5_B;455;1928;1473;ListFischi1;0;;2;203;86979;12;15;1950;88929;78;1;1950;1;1393;479;1872;1;1
TMS_Ibrahim;49;3;"<?xml version=""1.0""?>\n<Clock xmlns:dt=""urn:schemas-microsoft-com:datatypes""><Description dt:dt=""string"">E-Prime Primary Realtime Clock</Description><StartTime><Timestamp dt:dt=""int"">0</Timestamp><DateUtc dt:dt=""string"">2023-03-23T11:17:21Z</DateUtc></StartTime><FrequencyChanges><FrequencyChange><Frequency dt:dt=""r8"">3312841</Frequency><Timestamp dt:dt=""r8"">33985471441</Timestamp><Current dt:dt=""r8"">0</Current><DateUtc dt:dt=""string"">2023-03-23T11:17:21Z</DateUtc></FrequencyChange></FrequencyChanges></Clock>\n";TMS_Ibrahim-49-3;75.029;1.0.0.561;1;;-373611798;2.0.10.242;2.0.10.242;03-23-2023;23/03/2023 11:17;12:17:21;2.0.10.147;0;;-999999;27;23462;0;1;2360;25822;1;1;1;2;1;2;1;BlockProcFischi;BlockList;1;200;0;;-999999;32;27155;0;1;550;27705;1;1;1;1;ProcFischi1;ListBlockFischi;10;1;2;0;0;5;Pr4_B;250;1;op;5;2;13;1;10;1;0;TrialProc;651;677;Pr4_B;748;1997;1249;ListFischi1;0;;2;201;93695;14;15;2017;95712;357;1;2017;1;969;305;1660;1;1
TMS_Ibrahim;49;3;"<?xml version=""1.0""?>\n<Clock xmlns:dt=""urn:schemas-microsoft-com:datatypes""><Description dt:dt=""string"">E-Prime Primary Realtime Clock</Description><StartTime><Timestamp dt:dt=""int"">0</Timestamp><DateUtc dt:dt=""string"">2023-03-23T11:17:21Z</DateUtc></StartTime><FrequencyChanges><FrequencyChange><Frequency dt:dt=""r8"">3312841</Frequency><Timestamp dt:dt=""r8"">33985471441</Timestamp><Current dt:dt=""r8"">0</Current><DateUtc dt:dt=""string"">2023-03-23T11:17:21Z</DateUtc></FrequencyChange></FrequencyChanges></Clock>\n";TMS_Ibrahim-49-3;75.029;1.0.0.561;1;;-373611798;2.0.10.242;2.0.10.242;03-23-2023;23/03/2023 11:17;12:17:21;2.0.10.147;0;;-999999;27;23462;0;1;2360;25822;1;1;1;2;1;2;1;BlockProcFischi;BlockList;1;200;0;;-999999;32;27155;0;1;550;27705;1;1;1;1;ProcFischi1;ListBlockFischi;11;1;1;0;0;3;Po2_B;175;2;op;3;2;33;1;11;2;0;TrialProc;674;1598;Po2_B;74;1751;1824;ListFischi1;0;;4;210;105006;19;13;1778;106784;18;1;1778;1;436;327;1760;1;1
TMS_Ibrahim;49;3;"<?xml version=""1.0""?>\n<Clock xmlns:dt=""urn:schemas-microsoft-com:datatypes""><Description dt:dt=""string"">E-Prime Primary Realtime Clock</Description><StartTime><Timestamp dt:dt=""int"">0</Timestamp><DateUtc dt:dt=""string"">2023-03-23T11:17:21Z</DateUtc></StartTime><FrequencyChanges><FrequencyChange><Frequency dt:dt=""r8"">3312841</Frequency><Timestamp dt:dt=""r8"">33985471441</Timestamp><Current dt:dt=""r8"">0</Current><DateUtc dt:dt=""string"">2023-03-23T11:17:21Z</DateUtc></FrequencyChange></FrequencyChanges></Clock>\n";TMS_Ibrahim-49-3;75.029;1.0.0.561;1;;-373611798;2.0.10.242;2.0.10.242;03-23-2023;23/03/2023 11:17;12:17:21;2.0.10.147;0;;-999999;27;23462;0;1;2360;25822;1;1;1;2;1;2;1;BlockProcFischi;BlockList;1;200;0;;-999999;32;27155;0;1;550;27705;1;1;1;1;ProcFischi1;ListBlockFischi;12;1;1;0;0;3;Po8_B;150;2;op;3;2;37;1;12;2;0;TrialProc;717;1249;Po8_B;449;2031;1582;ListFischi1;0;;1;202;112823;12;1333;3209;116032;89;1;2057;1;1269;310;1968;1;1
TMS_Ibrahim;49;3;"<?xml version=""1.0""?>\n<Clock xmlns:dt=""urn:schemas-microsoft-com:datatypes""><Description dt:dt=""string"">E-Prime Primary Realtime Clock</Description><StartTime><Timestamp dt:dt=""int"">0</Timestamp><DateUtc dt:dt=""string"">2023-03-23T11:17:21Z</DateUtc></StartTime><FrequencyChanges><FrequencyChange><Frequency dt:dt=""r8"">3312841</Frequency><Timestamp dt:dt=""r8"">33985471441</Timestamp><Current dt:dt=""r8"">0</Current><DateUtc dt:dt=""string"">2023-03-23T11:17:21Z</DateUtc></FrequencyChange></FrequencyChanges></Clock>\n";TMS_Ibrahim-49-3;75.029;1.0.0.561;1;;-373611798;2.0.10.242;2.0.10.242;03-23-2023;23/03/2023 11:17;12:17:21;2.0.10.147;0;;-999999;27;23462;0;1;2360;25822;1;1;1;2;1;2;1;BlockProcFischi;BlockList;1;200;0;;-999999;32;27155;0;1;550;27705;1;1;1;1;ProcFischi1;ListBlockFischi;13;1;1;1;1;3;Pomod_B;150;2;op;3;2;48;1;13;2;0;TrialProc;545;1313;Pomod_B;307;1980;1672;ListFischi1;0;;2;203;118956;10;13;2004;120960;116;1;2004;1;459;207;1888;1;1
TMS_Ibrahim;49;3;"<?xml version=""1.0""?>\n<Clock xmlns:dt=""urn:schemas-microsoft-com:datatypes""><Description dt:dt=""string"">E-Prime Primary Realtime Clock</Description><StartTime><Timestamp dt:dt=""int"">0</Timestamp><DateUtc dt:dt=""string"">2023-03-23T11:17:21Z</DateUtc></StartTime><FrequencyChanges><FrequencyChange><Frequency dt:dt=""r8"">3312841</Frequency><Timestamp dt:dt=""r8"">33985471441</Timestamp><Current dt:dt=""r8"">0</Current><DateUtc dt:dt=""string"">2023-03-23T11:17:21Z</DateUtc></FrequencyChange></FrequencyChanges></Clock>\n";TMS_Ibrahim-49-3;75.029;1.0.0.561;1;;-373611798;2.0.10.242;2.0.10.242;03-23-2023;23/03/2023 11:17;12:17:21;2.0.10.147;0;;-999999;27;23462;0;1;2360;25822;1;1;1;2;1;2;1;BlockProcFischi;BlockList;1;200;0;;-999999;32;27155;0;1;550;27705;1;1;1;1;ProcFischi1;ListBlockFischi;14;1;1;0;2;3;Po3_B;150;2;op;3;2;44;1;14;2;0;TrialProc;579;1315;Po3_B;158;1742;1583;ListFischi1;0;;2;201;125815;15;133;2249;128064;41;1;1769;1;406;528;1728;1;1
TMS_Ibrahim;49;3;"<?xml version=""1.0""?>\n<Clock xmlns:dt=""urn:schemas-microsoft-com:datatypes""><Description dt:dt=""string"">E-Prime Primary Realtime Clock</Description><StartTime><Timestamp dt:dt=""int"">0</Timestamp><DateUtc dt:dt=""string"">2023-03-23T11:17:21Z</DateUtc></StartTime><FrequencyChanges><FrequencyChange><Frequency dt:dt=""r8"">3312841</Frequency><Timestamp dt:dt=""r8"">33985471441</Timestamp><Current dt:dt=""r8"">0</Current><DateUtc dt:dt=""string"">2023-03-23T11:17:21Z</DateUtc></FrequencyChange></FrequencyChanges></Clock>\n";TMS_Ibrahim-49-3;75.029;1.0.0.561;1;;-373611798;2.0.10.242;2.0.10.242;03-23-2023;23/03/2023 11:17;12:17:21;2.0.10.147;0;;-999999;27;23462;0;1;2360;25822;1;1;1;2;1;2;1;BlockProcFischi;BlockList;1;200;0;;-999999;32;27155;0;1;550;27705;1;1;1;1;ProcFischi1;ListBlockFischi;15;1;1;0;2;3;Po4_B;150;2;op;3;2;35;1;15;2;0;TrialProc;868;1335;Po4_B;9;1699;1709;ListFischi1;0;;2;203;132646;8;13;1722;134368;250;1;1722;1;395;340;1472;1;1
TMS_Ibrahim;49;3;"<?xml version=""1.0""?>\n<Clock xmlns:dt=""urn:schemas-microsoft-com:datatypes""><Description dt:dt=""string"">E-Prime Primary Realtime Clock</Description><StartTime><Timestamp dt:dt=""int"">0</Timestamp><DateUtc dt:dt=""string"">2023-03-23T11:17:21Z</DateUtc></StartTime><FrequencyChanges><FrequencyChange><Frequency dt:dt=""r8"">3312841</Frequency><Timestamp dt:dt=""r8"">33985471441</Timestamp><Current dt:dt=""r8"">0</Current><DateUtc dt:dt=""string"">2023-03-23T11:17:21Z</DateUtc></FrequencyChange></FrequencyChanges></Clock>\n";TMS_Ibrahim-49-3;75.029;1.0.0.561;1;;-373611798;2.0.10.242;2.0.10.242;03-23-2023;23/03/2023 11:17;12:17:21;2.0.10.147;0;;-999999;27;23462;0;1;2360;25822;1;1;1;2;1;2;1;BlockProcFischi;BlockList;1;200;0;;-999999;32;27155;0;1;550;27705;1;1;1;1;ProcFischi1;ListBlockFischi;16;1;2;1;1;3;Prmod_B;225;3;ug;3;2;31;1;16;3;1;TrialProc;655;1314;Prmod_B;234;1881;1648;ListFischi1;0;;2;201;139907;11;113;1900;141807;252;1;1900;1;779;530;1648;1;1
TMS_Ibrahim;49;3;"<?xml version=""1.0""?>\n<Clock xmlns:dt=""urn:schemas-microsoft-com:datatypes""><Description dt:dt=""string"">E-Prime Primary Realtime Clock</Description><StartTime><Timestamp dt:dt=""int"">0</Timestamp><DateUtc dt:dt=""string"">2023-03-23T11:17:21Z</DateUtc></StartTime><FrequencyChanges><FrequencyChange><Frequency dt:dt=""r8"">3312841</Frequency><Timestamp dt:dt=""r8"">33985471441</Timestamp><Current dt:dt=""r8"">0</Current><DateUtc dt:dt=""string"">2023-03-23T11:17:21Z</DateUtc></FrequencyChange></FrequencyChanges></Clock>\n";TMS_Ibrahim-49-3;75.029;1.0.0.561;1;;-373611798;2.0.10.242;2.0.10.242;03-23-2023;23/03/2023 11:17;12:17:21;2.0.10.147;0;;-999999;27;23462;0;1;2360;25822;1;1;1;2;1;2;1;BlockProcFischi;BlockList;1;200;0;;-999999;32;27155;0;1;550;27705;1;1;1;1;ProcFischi1;ListBlockFischi;17;1;1;0;2;5;Po3_B;250;4;ug;5;2;50;1;17;4;1;TrialProc;1737;1311;Po3_B;277;1856;1578;ListFischi1;0;;2;203;146934;8;15;1881;148815;185;1;1881;1;590;425;1696;1;1
TMS_Ibrahim;49;3;"<?xml version=""1.0""?>\n<Clock xmlns:dt=""urn:schemas-microsoft-com:datatypes""><Description dt:dt=""string"">E-Prime Primary Realtime Clock</Description><StartTime><Timestamp dt:dt=""int"">0</Timestamp><DateUtc dt:dt=""string"">2023-03-23T11:17:21Z</DateUtc></StartTime><FrequencyChanges><FrequencyChange><Frequency dt:dt=""r8"">3312841</Frequency><Timestamp dt:dt=""r8"">33985471441</Timestamp><Current dt:dt=""r8"">0</Current><DateUtc dt:dt=""string"">2023-03-23T11:17:21Z</DateUtc></FrequencyChange></FrequencyChanges></Clock>\n";TMS_Ibrahim-49-3;75.029;1.0.0.561;1;;-373611798;2.0.10.242;2.0.10.242;03-23-2023;23/03/2023 11:17;12:17:21;2.0.10.147;0;;-999999;27;23462;0;1;2360;25822;1;1;1;2;1;2;1;BlockProcFischi;BlockList;1;200;0;;-999999;32;27155;0;1;550;27705;1;1;1;1;ProcFischi1;ListBlockFischi;18;1;2;0;1;3;Pr3_B;225;3;ug;3;2;23;1;18;3;1;TrialProc;928;717;Pr3_B;260;1976;1715;ListFischi1;0;;2;201;153912;14;13;2007;155919;122;1;2007;1;400;302;1885;1;1
TMS_Ibrahim;49;3;"<?xml version=""1.0""?>\n<Clock xmlns:dt=""urn:schemas-microsoft-com:datatypes""><Description dt:dt=""string"">E-Prime Primary Realtime Clock</Description><StartTime><Timestamp dt:dt=""int"">0</Timestamp><DateUtc dt:dt=""string"">2023-03-23T11:17:21Z</DateUtc></StartTime><FrequencyChanges><FrequencyChange><Frequency dt:dt=""r8"">3312841</Frequency><Timestamp dt:dt=""r8"">33985471441</Timestamp><Current dt:dt=""r8"">0</Current><DateUtc dt:dt=""string"">2023-03-23T11:17:21Z</DateUtc></FrequencyChange></FrequencyChanges></Clock>\n";TMS_Ibrahim-49-3;75.029;1.0.0.561;1;;-373611798;2.0.10.242;2.0.10.242;03-23-2023;23/03/2023 11:17;12:17:21;2.0.10.147;0;;-999999;27;23462;0;1;2360;25822;1;1;1;2;1;2;1;BlockProcFischi;BlockList;1;200;0;;-999999;32;27155;0;1;550;27705;1;1;1;1;ProcFischi1;ListBlockFischi;19;1;2;0;1;5;Pr8_B;250;1;op;5;2;5;1;19;1;0;TrialProc;536;715;Pr8_B;733;2474;1741;ListFischi1;0;;2;203;161697;13;15;2494;164191;94;1;2494;1;755;504;2400;1;1
TMS_Ibrahim;49;3;"<?xml version=""1.0""?>\n<Clock xmlns:dt=""urn:schemas-microsoft-com:datatypes""><Description dt:dt=""string"">E-Prime Primary Realtime Clock</Description><StartTime><Timestamp dt:dt=""int"">0</Timestamp><DateUtc dt:dt=""string"">2023-03-23T11:17:21Z</DateUtc></StartTime><FrequencyChanges><FrequencyChange><Frequency dt:dt=""r8"">3312841</Frequency><Timestamp dt:dt=""r8"">33985471441</Timestamp><Current dt:dt=""r8"">0</Current><DateUtc dt:dt=""string"">2023-03-23T11:17:21Z</DateUtc></FrequencyChange></FrequencyChanges></Clock>\n";TMS_Ibrahim-49-3;75.029;1.0.0.561;1;;-373611798;2.0.10.242;2.0.10.242;03-23-2023;23/03/2023 11:17;12:17:21;2.0.10.147;0;;-999999;27;23462;0;1;2360;25822;1;1;1;2;1;2;1;BlockProcFischi;BlockList;1;200;0;;-999999;32;27155;0;1;550;27705;1;1;1;1;ProcFischi1;ListBlockFischi;20;0;2;1;2;5;Prmod_B;;1;op;1;2;15;1;20;1;0;TrialProc;814;1317;Prmod_B;733;2474;1651;ListFischi1;0;;2;201;169333;14;15;2138;171471;74;1;1;1;408;297;-73;1;0
TMS_Ibrahim;49;3;"<?xml version=""1.0""?>\n<Clock xmlns:dt=""urn:schemas-microsoft-com:datatypes""><Description dt:dt=""string"">E-Prime Primary Realtime Clock</Description><StartTime><Timestamp dt:dt=""int"">0</Timestamp><DateUtc dt:dt=""string"">2023-03-23T11:17:21Z</DateUtc></StartTime><FrequencyChanges><FrequencyChange><Frequency dt:dt=""r8"">3312841</Frequency><Timestamp dt:dt=""r8"">33985471441</Timestamp><Current dt:dt=""r8"">0</Current><DateUtc dt:dt=""string"">2023-03-23T11:17:21Z</DateUtc></FrequencyChange></FrequencyChanges></Clock>\n";TMS_Ibrahim-49-3;75.029;1.0.0.561;1;;-373611798;2.0.10.242;2.0.10.242;03-23-2023;23/03/2023 11:17;12:17:21;2.0.10.147;0;;-999999;27;23462;0;1;2360;25822;1;1;1;2;1;2;1;BlockProcFischi;BlockList;1;200;0;;-999999;32;27155;0;1;550;27705;1;1;1;1;ProcFischi1;ListBlockFischi;21;0;1;0;0;3;Po5_B;;2;op;0;2;36;1;21;2;0;TrialProc;11000;983;Po5_B;307;1783;1476;ListFischi1;0;;2;203;177409;15;331;11613;189022;1;1;1;1;506;237;0;0;0
TMS_Ibrahim;49;3;"<?xml version=""1.0""?>\n<Clock xmlns:dt=""urn:schemas-microsoft-com:datatypes""><Description dt:dt=""string"">E-Prime Primary Realtime Clock</Description><StartTime><Timestamp dt:dt=""int"">0</Timestamp><DateUtc dt:dt=""string"">2023-03-23T11:17:21Z</DateUtc></StartTime><FrequencyChanges><FrequencyChange><Frequency dt:dt=""r8"">3312841</Frequency><Timestamp dt:dt=""r8"">33985471441</Timestamp><Current dt:dt=""r8"">0</Current><DateUtc dt:dt=""string"">2023-03-23T11:17:21Z</DateUtc></FrequencyChange></FrequencyChanges></Clock>\n";TMS_Ibrahim-49-3;75.029;1.0.0.561;1;;-373611798;2.0.10.242;2.0.10.242;03-23-2023;23/03/2023 11:17;12:17:21;2.0.10.147;0;;-999999;27;23462;0;1;2360;25822;1;1;1;2;1;2;1;BlockProcFischi;BlockList;1;200;0;;-999999;32;27155;0;1;550;27705;1;1;1;1;ProcFischi1;ListBlockFischi;22;1;2;0;2;3;Pr8_B;225;3;ug;3;2;26;1;22;3;1;TrialProc;694;712;Pr8_B;478;2215;1737;ListFischi1;0;;2;203;191876;9;13;2234;194110;42;1;2234;1;519;396;2192;1;1
TMS_Ibrahim;49;3;"<?xml version=""1.0""?>\n<Clock xmlns:dt=""urn:schemas-microsoft-com:datatypes""><Description dt:dt=""string"">E-Prime Primary Realtime Clock</Description><StartTime><Timestamp dt:dt=""int"">0</Timestamp><DateUtc dt:dt=""string"">2023-03-23T11:17:21Z</DateUtc></StartTime><FrequencyChanges><FrequencyChange><Frequency dt:dt=""r8"">3312841</Frequency><Timestamp dt:dt=""r8"">33985471441</Timestamp><Current dt:dt=""r8"">0</Current><DateUtc dt:dt=""string"">2023-03-23T11:17:21Z</DateUtc></FrequencyChange></FrequencyChanges></Clock>\n";TMS_Ibrahim-49-3;75.029;1.0.0.561;1;;-373611798;2.0.10.242;2.0.10.242;03-23-2023;23/03/2023 11:17;12:17:21;2.0.10.147;0;;-999999;27;23462;0;1;2360;25822;1;1;1;2;1;2;1;BlockProcFischi;BlockList;1;200;0;;-999999;32;27155;0;1;550;27705;1;1;1;1;ProcFischi1;ListBlockFischi;23;0;1;0;0;5;Po5_B;;4;ug;0;2;52;1;23;4;1;TrialProc;776;983;Po5_B;478;2215;1476;ListFischi1;0;;1;201;198908;14;5;1682;200590;1;1;1;1;108;515;0;0;0
TMS_Ibrahim;49;3;"<?xml version=""1.0""?>\n<Clock xmlns:dt=""urn:schemas-microsoft-com:datatypes""><Description dt:dt=""string"">E-Prime Primary Realtime Clock</Description><StartTime><Timestamp dt:dt=""int"">0</Timestamp><DateUtc dt:dt=""string"">2023-03-23T11:17:21Z</DateUtc></StartTime><FrequencyChanges><FrequencyChange><Frequency dt:dt=""r8"">3312841</Frequency><Timestamp dt:dt=""r8"">33985471441</Timestamp><Current dt:dt=""r8"">0</Current><DateUtc dt:dt=""string"">2023-03-23T11:17:21Z</DateUtc></FrequencyChange></FrequencyChanges></Clock>\n";TMS_Ibrahim-49-3;75.029;1.0.0.561;1;;-373611798;2.0.10.242;2.0.10.242;03-23-2023;23/03/2023 11:17;12:17:21;2.0.10.147;0;;-999999;27;23462;0;1;2360;25822;1;1;1;2;1;2;1;BlockProcFischi;BlockList;1;200;0;;-999999;32;27155;0;1;550;27705;1;1;1;1;ProcFischi1;ListBlockFischi;24;1;2;0;0;3;Pr4_B;250;3;ug;3;2;29;1;24;3;1;TrialProc;799;674;Pr4_B;370;1617;1246;ListFischi1;0;;2;203;206760;12;13;1654;208414;214;1;1654;1;696;572;1440;1;1
TMS_Ibrahim;49;3;"<?xml version=""1.0""?>\n<Clock xmlns:dt=""urn:schemas-microsoft-com:datatypes""><Description dt:dt=""string"">E-Prime Primary Realtime Clock</Description><StartTime><Timestamp dt:dt=""int"">0</Timestamp><DateUtc dt:dt=""string"">2023-03-23T11:17:21Z</DateUtc></StartTime><FrequencyChanges><FrequencyChange><Frequency dt:dt=""r8"">3312841</Frequency><Timestamp dt:dt=""r8"">33985471441</Timestamp><Current dt:dt=""r8"">0</Current><DateUtc dt:dt=""string"">2023-03-23T11:17:21Z</DateUtc></FrequencyChange></FrequencyChanges></Clock>\n";TMS_Ibrahim-49-3;75.029;1.0.0.561;1;;-373611798;2.0.10.242;2.0.10.242;03-23-2023;23/03/2023 11:17;12:17:21;2.0.10.147;0;;-999999;27;23462;0;1;2360;25822;1;1;1;2;1;2;1;BlockProcFischi;BlockList;1;200;0;;-999999;32;27155;0;1;550;27705;1;1;1;1;ProcFischi1;ListBlockFischi;25;1;2;0;1;3;Pr2_B;250;3;ug;3;2;22;1;25;3;1;TrialProc;766;722;Pr2_B;101;1354;1254;ListFischi1;0;;2;201;213739;17;133;2611;216350;195;1;1379;1;1166;276;1184;1;1
TMS_Ibrahim;49;3;"<?xml version=""1.0""?>\n<Clock xmlns:dt=""urn:schemas-microsoft-com:datatypes""><Description dt:dt=""string"">E-Prime Primary Realtime Clock</Description><StartTime><Timestamp dt:dt=""int"">0</Timestamp><DateUtc dt:dt=""string"">2023-03-23T11:17:21Z</DateUtc></StartTime><FrequencyChanges><FrequencyChange><Frequency dt:dt=""r8"">3312841</Frequency><Timestamp dt:dt=""r8"">33985471441</Timestamp><Current dt:dt=""r8"">0</Current><DateUtc dt:dt=""string"">2023-03-23T11:17:21Z</DateUtc></FrequencyChange></FrequencyChanges></Clock>\n";TMS_Ibrahim-49-3;75.029;1.0.0.561;1;;-373611798;2.0.10.242;2.0.10.242;03-23-2023;23/03/2023 11:17;12:17:21;2.0.10.147;0;;-999999;27;23462;0;1;2360;25822;1;1;1;2;1;2;1;BlockProcFischi;BlockList;1;200;0;;-999999;32;27155;0;1;550;27705;1;1;1;1;ProcFischi1;ListBlockFischi;26;1;1;0;0;3;Po3_B;125;2;op;3;2;39;1;26;2;0;TrialProc;828;1316;Po3_B;37;1621;1584;ListFischi1;0;;2;203;219765;16;13;1656;221421;25;1;1656;1;907;278;1631;1;1
TMS_Ibrahim;49;3;"<?xml version=""1.0""?>\n<Clock xmlns:dt=""urn:schemas-microsoft-com:datatypes""><Description dt:dt=""string"">E-Prime Primary Realtime Clock</Description><StartTime><Timestamp dt:dt=""int"">0</Timestamp><DateUtc dt:dt=""string"">2023-03-23T11:17:21Z</DateUtc></StartTime><FrequencyChanges><FrequencyChange><Frequency dt:dt=""r8"">3312841</Frequency><Timestamp dt:dt=""r8"">33985471441</Timestamp><Current dt:dt=""r8"">0</Current><DateUtc dt:dt=""string"">2023-03-23T11:17:21Z</DateUtc></FrequencyChange></FrequencyChanges></Clock>\n";TMS_Ibrahim-49-3;75.029;1.0.0.561;1;;-373611798;2.0.10.242;2.0.10.242;03-23-2023;23/03/2023 11:17;12:17:21;2.0.10.147;0;;-999999;27;23462;0;1;2360;25822;1;1;1;2;1;2;1;BlockProcFischi;BlockList;1;200;0;;-999999;32;27155;0;1;550;27705;1;1;1;1;ProcFischi1;ListBlockFischi;27;1;1;0;0;5;Po2_B;275;4;ug;5;2;54;1;27;4;1;TrialProc;1078;1579;Po2_B;246;2051;1805;ListFischi1;0;;2;201;226941;10;15;2080;229021;128;1;2080;1;382;490;1952;1;1
TMS_Ibrahim;49;3;"<?xml version=""1.0""?>\n<Clock xmlns:dt=""urn:schemas-microsoft-com:datatypes""><Description dt:dt=""string"">E-Prime Primary Realtime Clock</Description><StartTime><Timestamp dt:dt=""int"">0</Timestamp><DateUtc dt:dt=""string"">2023-03-23T11:17:21Z</DateUtc></StartTime><FrequencyChanges><FrequencyChange><Frequency dt:dt=""r8"">3312841</Frequency><Timestamp dt:dt=""r8"">33985471441</Timestamp><Current dt:dt=""r8"">0</Current><DateUtc dt:dt=""string"">2023-03-23T11:17:21Z</DateUtc></FrequencyChange></FrequencyChanges></Clock>\n";TMS_Ibrahim-49-3;75.029;1.0.0.561;1;;-373611798;2.0.10.242;2.0.10.242;03-23-2023;23/03/2023 11:17;12:17:21;2.0.10.147;0;;-999999;27;23462;0;1;2360;25822;1;1;1;2;1;2;1;BlockProcFischi;BlockList;1;200;0;;-999999;32;27155;0;1;550;27705;1;1;1;1;ProcFischi1;ListBlockFischi;28;1;1;0;0;3;Po5_B;100;2;op;3;2;41;1;28;2;0;TrialProc;803;981;Po5_B;245;1719;1474;ListFischi1;0;;2;203;233750;12;133;1847;235597;7;1;1751;1;551;541;1744;1;1
TMS_Ibrahim;49;3;"<?xml version=""1.0""?>\n<Clock xmlns:dt=""urn:schemas-microsoft-com:datatypes""><Description dt:dt=""string"">E-Prime Primary Realtime Clock</Description><StartTime><Timestamp dt:dt=""int"">0</Timestamp><DateUtc dt:dt=""string"">2023-03-23T11:17:21Z</DateUtc></StartTime><FrequencyChanges><FrequencyChange><Frequency dt:dt=""r8"">3312841</Frequency><Timestamp dt:dt=""r8"">33985471441</Timestamp><Current dt:dt=""r8"">0</Current><DateUtc dt:dt=""string"">2023-03-23T11:17:21Z</DateUtc></FrequencyChange></FrequencyChanges></Clock>\n";TMS_Ibrahim-49-3;75.029;1.0.0.561;1;;-373611798;2.0.10.242;2.0.10.242;03-23-2023;23/03/2023 11:17;12:17:21;2.0.10.147;0;;-999999;27;23462;0;1;2360;25822;1;1;1;2;1;2;1;BlockProcFischi;BlockList;1;200;0;;-999999;32;27155;0;1;550;27705;1;1;1;1;ProcFischi1;ListBlockFischi;29;0;1;1;0;5;Pomod_B;;4;ug;0;2;63;1;29;4;1;TrialProc;1246;1313;Pomod_B;345;2019;1673;ListFischi1;0;;2;201;240562;11;5;2043;242605;1;1;1;1;619;284;0;0;0
TMS_Ibrahim;49;3;"<?xml version=""1.0""?>\n<Clock xmlns:dt=""urn:schemas-microsoft-com:datatypes""><Description dt:dt=""string"">E-Prime Primary Realtime Clock</Description><StartTime><Timestamp dt:dt=""int"">0</Timestamp><DateUtc dt:dt=""string"">2023-03-23T11:17:21Z</DateUtc></StartTime><FrequencyChanges><FrequencyChange><Frequency dt:dt=""r8"">3312841</Frequency><Timestamp dt:dt=""r8"">33985471441</Timestamp><Current dt:dt=""r8"">0</Current><DateUtc dt:dt=""string"">2023-03-23T11:17:21Z</DateUtc></FrequencyChange></FrequencyChanges></Clock>\n";TMS_Ibrahim-49-3;75.029;1.0.0.561;1;;-373611798;2.0.10.242;2.0.10.242;03-23-2023;23/03/2023 11:17;12:17:21;2.0.10.147;0;;-999999;27;23462;0;1;2360;25822;1;1;1;2;1;2;1;BlockProcFischi;BlockList;1;200;0;;-999999;32;27155;0;1;550;27705;1;1;1;1;ProcFischi1;ListBlockFischi;30;0;2;0;2;5;Pr5_B;;1;op;3;2;4;1;30;1;0;TrialProc;774;673;Pr5_B;457;1730;1274;ListFischi1;0;;2;203;248878;12;13;1759;250637;127;1;1759;1;749;306;1632;1;0
TMS_Ibrahim;49;3;"<?xml version=""1.0""?>\n<Clock xmlns:dt=""urn:schemas-microsoft-com:datatypes""><Description dt:dt=""string"">E-Prime Primary Realtime Clock</Description><StartTime><Timestamp dt:dt=""int"">0</Timestamp><DateUtc dt:dt=""string"">2023-03-23T11:17:21Z</DateUtc></StartTime><FrequencyChanges><FrequencyChange><Frequency dt:dt=""r8"">3312841</Frequency><Timestamp dt:dt=""r8"">33985471441</Timestamp><Current dt:dt=""r8"">0</Current><DateUtc dt:dt=""string"">2023-03-23T11:17:21Z</DateUtc></FrequencyChange></FrequencyChanges></Clock>\n";TMS_Ibrahim-49-3;75.029;1.0.0.561;1;;-373611798;2.0.10.242;2.0.10.242;03-23-2023;23/03/2023 11:17;12:17:21;2.0.10.147;0;;-999999;27;23462;0;1;2360;25822;1;1;1;2;1;2;1;BlockProcFischi;BlockList;1;200;0;;-999999;32;27155;0;1;550;27705;1;1;1;1;ProcFischi1;ListBlockFischi;31;1;2;0;2;5;Pr3_B;250;1;op;5;2;12;1;31;1;0;TrialProc;639;713;Pr3_B;54;1766;1713;ListFischi1;0;;2;201;255517;10;15;1792;257309;48;1;1792;1;592;301;1744;1;1
TMS_Ibrahim;49;3;"<?xml version=""1.0""?>\n<Clock xmlns:dt=""urn:schemas-microsoft-com:datatypes""><Description dt:dt=""string"">E-Prime Primary Realtime Clock</Description><StartTime><Timestamp dt:dt=""int"">0</Timestamp><DateUtc dt:dt=""string"">2023-03-23T11:17:21Z</DateUtc></StartTime><FrequencyChanges><FrequencyChange><Frequency dt:dt=""r8"">3312841</Frequency><Timestamp dt:dt=""r8"">33985471441</Timestamp><Current dt:dt=""r8"">0</Current><DateUtc dt:dt=""string"">2023-03-23T11:17:21Z</DateUtc></FrequencyChange></FrequencyChanges></Clock>\n";TMS_Ibrahim-49-3;75.029;1.0.0.561;1;;-373611798;2.0.10.242;2.0.10.242;03-23-2023;23/03/2023 11:17;12:17:21;2.0.10.147;0;;-999999;27;23462;0;1;2360;25822;1;1;1;2;1;2;1;BlockProcFischi;BlockList;1;200;0;;-999999;32;27155;0;1;550;27705;1;1;1;1;ProcFischi1;ListBlockFischi;32;1;2;0;0;3;Pr4_B;225;3;ug;3;2;24;1;32;3;1;TrialProc;589;672;Pr4_B;503;1748;1244;ListFischi1;0;;2;203;262796;8;13;1777;264573;65;1;1777;1;533;494;1712;1;1
TMS_Ibrahim;49;3;"<?xml version=""1.0""?>\n<Clock xmlns:dt=""urn:schemas-microsoft-com:datatypes""><Description dt:dt=""string"">E-Prime Primary Realtime Clock</Description><StartTime><Timestamp dt:dt=""int"">0</Timestamp><DateUtc dt:dt=""string"">2023-03-23T11:17:21Z</DateUtc></StartTime><FrequencyChanges><FrequencyChange><Frequency dt:dt=""r8"">3312841</Frequency><Timestamp dt:dt=""r8"">33985471441</Timestamp><Current dt:dt=""r8"">0</Current><DateUtc dt:dt=""string"">2023-03-23T11:17:21Z</DateUtc></FrequencyChange></FrequencyChanges></Clock>\n";TMS_Ibrahim-49-3;75.029;1.0.0.561;1;;-373611798;2.0.10.242;2.0.10.242;03-23-2023;23/03/2023 11:17;12:17:21;2.0.10.147;0;;-999999;27;23462;0;1;2360;25822;1;1;1;2;1;2;1;BlockProcFischi;BlockList;1;200;0;;-999999;32;27155;0;1;550;27705;1;1;1;1;ProcFischi1;ListBlockFischi;33;0;1;0;0;5;Po4_B;;4;ug;0;2;51;1;33;4;1;TrialProc;1094;1340;Po4_B;33;1747;1714;ListFischi1;0;;1;201;269431;11;5;1781;271212;1;1;1;1;804;337;0;0;0
TMS_Ibrahim;49;3;"<?xml version=""1.0""?>\n<Clock xmlns:dt=""urn:schemas-microsoft-com:datatypes""><Description dt:dt=""string"">E-Prime Primary Realtime Clock</Description><StartTime><Timestamp dt:dt=""int"">0</Timestamp><DateUtc dt:dt=""string"">2023-03-23T11:17:21Z</DateUtc></StartTime><FrequencyChanges><FrequencyChange><Frequency dt:dt=""r8"">3312841</Frequency><Timestamp dt:dt=""r8"">33985471441</Timestamp><Current dt:dt=""r8"">0</Current><DateUtc dt:dt=""string"">2023-03-23T11:17:21Z</DateUtc></FrequencyChange></FrequencyChanges></Clock>\n";TMS_Ibrahim-49-3;75.029;1.0.0.561;1;;-373611798;2.0.10.242;2.0.10.242;03-23-2023;23/03/2023 11:17;12:17:21;2.0.10.147;0;;-999999;27;23462;0;1;2360;25822;1;1;1;2;1;2;1;BlockProcFischi;BlockList;1;200;0;;-999999;32;27155;0;1;550;27705;1;1;1;1;ProcFischi1;ListBlockFischi;34;0;2;0;1;3;Pr3_B;;3;ug;0;2;28;1;34;3;1;TrialProc;9243;713;Pr3_B;184;1897;1712;ListFischi1;0;;2;203;278441;11;3;1923;280364;1;1;1;1;489;227;0;0;0
TMS_Ibrahim;49;3;"<?xml version=""1.0""?>\n<Clock xmlns:dt=""urn:schemas-microsoft-com:datatypes""><Description dt:dt=""string"">E-Prime Primary Realtime Clock</Description><StartTime><Timestamp dt:dt=""int"">0</Timestamp><DateUtc dt:dt=""string"">2023-03-23T11:17:21Z</DateUtc></StartTime><FrequencyChanges><FrequencyChange><Frequency dt:dt=""r8"">3312841</Frequency><Timestamp dt:dt=""r8"">33985471441</Timestamp><Current dt:dt=""r8"">0</Current><DateUtc dt:dt=""string"">2023-03-23T11:17:21Z</DateUtc></FrequencyChange></FrequencyChanges></Clock>\n";TMS_Ibrahim-49-3;75.029;1.0.0.561;1;;-373611798;2.0.10.242;2.0.10.242;03-23-2023;23/03/2023 11:17;12:17:21;2.0.10.147;0;;-999999;27;23462;0;1;2360;25822;1;1;1;2;1;2;1;BlockProcFischi;BlockList;1;200;0;;-999999;32;27155;0;1;550;27705;1;1;1;1;ProcFischi1;ListBlockFischi;35;1;1;0;1;3;Po4_B;100;2;op;3;2;45;1;35;2;0;TrialProc;708;1345;Po4_B;90;1808;1718;ListFischi1;0;;2;203;291910;17;13;1830;293740;198;1;1830;1;446;368;1632;1;1
TMS_Ibrahim;49;3;"<?xml version=""1.0""?>\n<Clock xmlns:dt=""urn:schemas-microsoft-com:datatypes""><Description dt:dt=""string"">E-Prime Primary Realtime Clock</Description><StartTime><Timestamp dt:dt=""int"">0</Timestamp><DateUtc dt:dt=""string"">2023-03-23T11:17:21Z</DateUtc></StartTime><FrequencyChanges><FrequencyChange><Frequency dt:dt=""r8"">3312841</Frequency><Timestamp dt:dt=""r8"">33985471441</Timestamp><Current dt:dt=""r8"">0</Current><DateUtc dt:dt=""string"">2023-03-23T11:17:21Z</DateUtc></FrequencyChange></FrequencyChanges></Clock>\n";TMS_Ibrahim-49-3;75.029;1.0.0.561;1;;-373611798;2.0.10.242;2.0.10.242;03-23-2023;23/03/2023 11:17;12:17:21;2.0.10.147;0;;-999999;27;23462;0;1;2360;25822;1;1;1;2;1;2;1;BlockProcFischi;BlockList;1;200;0;;-999999;32;27155;0;1;550;27705;1;1;1;1;ProcFischi1;ListBlockFischi;36;1;1;0;0;5;Po4_B;250;4;ug;5;2;61;1;36;4;1;TrialProc;750;1340;Po4_B;114;1600;1713;ListFischi1;0;;2;201;298860;11;15;1632;300492;480;1;1632;1;469;513;1152;1;1
