ExperimentName;Subject;Session;Clock.Information;DataFile.Basename;Display.RefreshRate;ExperimentVersion;Group;Name;RandomSeed;RuntimeVersion;RuntimeVersionExpected;SessionDate;SessionStartDateTimeUtc;SessionTime;StudioVersion;SyncEprimeKinB1.ACC;SyncEprimeKinB1.CRESP;SyncEprimeKinB1.DurationError;SyncEprimeKinB1.OnsetDelay;SyncEprimeKinB1.OnsetTime;SyncEprimeKinB1.OnsetToOnsetTime;SyncEprimeKinB1.RESP;SyncEprimeKinB1.RT;SyncEprimeKinB1.RTTime;Block;BlockINT_0Fischi_1Suoni;BlockList;BlockList.Cycle;BlockList.Sample;ContatoreSuoni;NumSuono;Procedure[Block];Running[Block];Suonilist;SuonoFinSoglia;SyncEprimeKinFischi1.ACC;SyncEprimeKinFischi1.CRESP;SyncEprimeKinFischi1.DurationError;SyncEprimeKinFischi1.OnsetDelay;SyncEprimeKinFischi1.OnsetTime;SyncEprimeKinFischi1.OnsetToOnsetTime;SyncEprimeKinFischi1.RESP;SyncEprimeKinFischi1.RT;SyncEprimeKinFischi1.RTTime;Trial;ListBlockFischi;ListBlockFischi.Cycle;ListBlockFischi.Sample;Procedure[Trial];Running[Trial];SubTrial;AccSogg1;Avatar_Giu1_Su2;CatchTrial_CORR;ContatoreFinestraSoglia;CorrectResponse;File_Name;FinestraSoglia;IdcondEEG;Istruzione;KeySoggetto1;KeySoggetto2;ListFischi1;ListFischi1.Cycle;ListFischi1.Sample;NumeroSuono;OP_UG;Procedure[SubTrial];Resoconto.RT;RTChange;RTimage;RTNetto;RTSubj;RTTouch;Running[SubTrial];StartGo.ACC;StartGo.CRESP;StartGo.DurationError;StartGo.OnsetDelay;StartGo.OnsetTime;StartGo.OnsetToOnsetTime;StartGo.RESP;StartGo.RT;StartGo.RTTime;StartSoggetto1;StartSoggetto2;StopSoggetto1;StopSoggetto2;StopTrial.RT;tempo;TMSoggetto1;ValiditaTrial;Vincitore
TMS_Ibrahim;50;2;"<?xml version=""1.0""?>\n<Clock xmlns:dt=""urn:schemas-microsoft-com:datatypes""><Description dt:dt=""string"">E-Prime Primary Realtime Clock</Description><StartTime><Timestamp dt:dt=""int"">0</Timestamp><DateUtc dt:dt=""string"">2023-03-30T09:09:48Z</DateUtc></StartTime><FrequencyChanges><FrequencyChange><Frequency dt:dt=""r8"">3312832</Frequency><Timestamp dt:dt=""r8"">32015054315</Timestamp><Current dt:dt=""r8"">0</Current><DateUtc dt:dt=""string"">2023-03-30T09:09:48Z</DateUtc></FrequencyChange></FrequencyChanges></Clock>\n";TMS_Ibrahim-50-2;75.028;1.0.0.561;1;;1950947595;2.0.10.242;2.0.10.242;03-30-2023;30/03/2023 09:09;11:09:48;2.0.10.147;0;;-999999;21;20062;0;1;1308;21370;1;1;1;2;1;0;1;BlockProcFischi;BlockList;1;75;0;;-999999;32;34670;0;1;1771;36441;1;1;1;1;ProcFischi1;ListBlockFischi;1;1;1;0;0;5;Po5_B;250;4;ug;5;2;62;1;1;4;1;TrialProc;841;1004;Po5_B;345;1856;1511;ListFischi1;0;;5;210;38858;21;155;2380;41238;621;1;1884;1;468;362;1263;1;1
TMS_Ibrahim;50;2;"<?xml version=""1.0""?>\n<Clock xmlns:dt=""urn:schemas-microsoft-com:datatypes""><Description dt:dt=""string"">E-Prime Primary Realtime Clock</Description><StartTime><Timestamp dt:dt=""int"">0</Timestamp><DateUtc dt:dt=""string"">2023-03-30T09:09:48Z</DateUtc></StartTime><FrequencyChanges><FrequencyChange><Frequency dt:dt=""r8"">3312832</Frequency><Timestamp dt:dt=""r8"">32015054315</Timestamp><Current dt:dt=""r8"">0</Current><DateUtc dt:dt=""string"">2023-03-30T09:09:48Z</DateUtc></FrequencyChange></FrequencyChanges></Clock>\n";TMS_Ibrahim-50-2;75.028;1.0.0.561;1;;1950947595;2.0.10.242;2.0.10.242;03-30-2023;30/03/2023 09:09;11:09:48;2.0.10.147;0;;-999999;21;20062;0;1;1308;21370;1;1;1;2;1;0;1;BlockProcFischi;BlockList;1;75;0;;-999999;32;34670;0;1;1771;36441;1;1;1;1;ProcFischi1;ListBlockFischi;2;1;1;1;0;3;Pomod_B;250;2;op;3;2;47;1;2;2;0;TrialProc;651;1322;Pomod_B;335;2018;1682;ListFischi1;0;;1;203;45302;14;13;2048;47350;512;1;2048;1;531;435;1536;1;1
TMS_Ibrahim;50;2;"<?xml version=""1.0""?>\n<Clock xmlns:dt=""urn:schemas-microsoft-com:datatypes""><Description dt:dt=""string"">E-Prime Primary Realtime Clock</Description><StartTime><Timestamp dt:dt=""int"">0</Timestamp><DateUtc dt:dt=""string"">2023-03-30T09:09:48Z</DateUtc></StartTime><FrequencyChanges><FrequencyChange><Frequency dt:dt=""r8"">3312832</Frequency><Timestamp dt:dt=""r8"">32015054315</Timestamp><Current dt:dt=""r8"">0</Current><DateUtc dt:dt=""string"">2023-03-30T09:09:48Z</DateUtc></FrequencyChange></FrequencyChanges></Clock>\n";TMS_Ibrahim-50-2;75.028;1.0.0.561;1;;1950947595;2.0.10.242;2.0.10.242;03-30-2023;30/03/2023 09:09;11:09:48;2.0.10.147;0;;-999999;21;20062;0;1;1308;21370;1;1;1;2;1;0;1;BlockProcFischi;BlockList;1;75;0;;-999999;32;34670;0;1;1771;36441;1;1;1;1;ProcFischi1;ListBlockFischi;3;1;2;0;0;3;Pr3_B;250;3;ug;3;2;23;1;3;3;1;TrialProc;981;720;Pr3_B;67;1787;1719;ListFischi1;0;;2;203;52194;13;133;2308;54502;580;1;1812;1;659;428;1232;1;1
TMS_Ibrahim;50;2;"<?xml version=""1.0""?>\n<Clock xmlns:dt=""urn:schemas-microsoft-com:datatypes""><Description dt:dt=""string"">E-Prime Primary Realtime Clock</Description><StartTime><Timestamp dt:dt=""int"">0</Timestamp><DateUtc dt:dt=""string"">2023-03-30T09:09:48Z</DateUtc></StartTime><FrequencyChanges><FrequencyChange><Frequency dt:dt=""r8"">3312832</Frequency><Timestamp dt:dt=""r8"">32015054315</Timestamp><Current dt:dt=""r8"">0</Current><DateUtc dt:dt=""string"">2023-03-30T09:09:48Z</DateUtc></FrequencyChange></FrequencyChanges></Clock>\n";TMS_Ibrahim-50-2;75.028;1.0.0.561;1;;1950947595;2.0.10.242;2.0.10.242;03-30-2023;30/03/2023 09:09;11:09:48;2.0.10.147;0;;-999999;21;20062;0;1;1308;21370;1;1;1;2;1;0;1;BlockProcFischi;BlockList;1;75;0;;-999999;32;34670;0;1;1771;36441;1;1;1;1;ProcFischi1;ListBlockFischi;4;1;1;0;1;5;Po8_B;250;4;ug;5;2;53;1;4;4;1;TrialProc;543;1256;Po8_B;11;1600;1589;ListFischi1;0;;2;201;58883;15;155;1907;60790;419;1;1619;1;547;309;1200;1;1
TMS_Ibrahim;50;2;"<?xml version=""1.0""?>\n<Clock xmlns:dt=""urn:schemas-microsoft-com:datatypes""><Description dt:dt=""string"">E-Prime Primary Realtime Clock</Description><StartTime><Timestamp dt:dt=""int"">0</Timestamp><DateUtc dt:dt=""string"">2023-03-30T09:09:48Z</DateUtc></StartTime><FrequencyChanges><FrequencyChange><Frequency dt:dt=""r8"">3312832</Frequency><Timestamp dt:dt=""r8"">32015054315</Timestamp><Current dt:dt=""r8"">0</Current><DateUtc dt:dt=""string"">2023-03-30T09:09:48Z</DateUtc></FrequencyChange></FrequencyChanges></Clock>\n";TMS_Ibrahim-50-2;75.028;1.0.0.561;1;;1950947595;2.0.10.242;2.0.10.242;03-30-2023;30/03/2023 09:09;11:09:48;2.0.10.147;0;;-999999;21;20062;0;1;1308;21370;1;1;1;2;1;0;1;BlockProcFischi;BlockList;1;75;0;;-999999;32;34670;0;1;1771;36441;1;1;1;1;ProcFischi1;ListBlockFischi;5;1;2;0;0;3;Pr5_B;225;3;ug;3;2;30;1;5;3;1;TrialProc;500;676;Pr5_B;242;1518;1276;ListFischi1;0;;2;203;65633;9;13;1541;67174;565;1;1541;1;321;282;976;1;1
TMS_Ibrahim;50;2;"<?xml version=""1.0""?>\n<Clock xmlns:dt=""urn:schemas-microsoft-com:datatypes""><Description dt:dt=""string"">E-Prime Primary Realtime Clock</Description><StartTime><Timestamp dt:dt=""int"">0</Timestamp><DateUtc dt:dt=""string"">2023-03-30T09:09:48Z</DateUtc></StartTime><FrequencyChanges><FrequencyChange><Frequency dt:dt=""r8"">3312832</Frequency><Timestamp dt:dt=""r8"">32015054315</Timestamp><Current dt:dt=""r8"">0</Current><DateUtc dt:dt=""string"">2023-03-30T09:09:48Z</DateUtc></FrequencyChange></FrequencyChanges></Clock>\n";TMS_Ibrahim-50-2;75.028;1.0.0.561;1;;1950947595;2.0.10.242;2.0.10.242;03-30-2023;30/03/2023 09:09;11:09:48;2.0.10.147;0;;-999999;21;20062;0;1;1308;21370;1;1;1;2;1;0;1;BlockProcFischi;BlockList;1;75;0;;-999999;32;34670;0;1;1771;36441;1;1;1;1;ProcFischi1;ListBlockFischi;6;1;1;0;1;3;Po4_B;250;2;op;3;2;40;1;6;2;0;TrialProc;454;1348;Po4_B;191;1531;1721;ListFischi1;0;;2;203;72757;16;133;1969;74726;465;1;1553;1;524;379;1088;1;1
TMS_Ibrahim;50;2;"<?xml version=""1.0""?>\n<Clock xmlns:dt=""urn:schemas-microsoft-com:datatypes""><Description dt:dt=""string"">E-Prime Primary Realtime Clock</Description><StartTime><Timestamp dt:dt=""int"">0</Timestamp><DateUtc dt:dt=""string"">2023-03-30T09:09:48Z</DateUtc></StartTime><FrequencyChanges><FrequencyChange><Frequency dt:dt=""r8"">3312832</Frequency><Timestamp dt:dt=""r8"">32015054315</Timestamp><Current dt:dt=""r8"">0</Current><DateUtc dt:dt=""string"">2023-03-30T09:09:48Z</DateUtc></FrequencyChange></FrequencyChanges></Clock>\n";TMS_Ibrahim-50-2;75.028;1.0.0.561;1;;1950947595;2.0.10.242;2.0.10.242;03-30-2023;30/03/2023 09:09;11:09:48;2.0.10.147;0;;-999999;21;20062;0;1;1308;21370;1;1;1;2;1;0;1;BlockProcFischi;BlockList;1;75;0;;-999999;32;34670;0;1;1771;36441;1;1;1;1;ProcFischi1;ListBlockFischi;7;0;2;0;0;5;Pr3_B;;1;op;1;2;12;1;7;1;0;TrialProc;901;723;Pr3_B;228;1949;1722;ListFischi1;0;;2;201;79806;17;155;3512;83318;440;1;1;1;189;555;-439;1;0
TMS_Ibrahim;50;2;"<?xml version=""1.0""?>\n<Clock xmlns:dt=""urn:schemas-microsoft-com:datatypes""><Description dt:dt=""string"">E-Prime Primary Realtime Clock</Description><StartTime><Timestamp dt:dt=""int"">0</Timestamp><DateUtc dt:dt=""string"">2023-03-30T09:09:48Z</DateUtc></StartTime><FrequencyChanges><FrequencyChange><Frequency dt:dt=""r8"">3312832</Frequency><Timestamp dt:dt=""r8"">32015054315</Timestamp><Current dt:dt=""r8"">0</Current><DateUtc dt:dt=""string"">2023-03-30T09:09:48Z</DateUtc></FrequencyChange></FrequencyChanges></Clock>\n";TMS_Ibrahim-50-2;75.028;1.0.0.561;1;;1950947595;2.0.10.242;2.0.10.242;03-30-2023;30/03/2023 09:09;11:09:48;2.0.10.147;0;;-999999;21;20062;0;1;1308;21370;1;1;1;2;1;0;1;BlockProcFischi;BlockList;1;75;0;;-999999;32;34670;0;1;1771;36441;1;1;1;1;ProcFischi1;ListBlockFischi;8;1;2;0;0;3;Pr2_B;225;3;ug;3;2;22;1;8;3;1;TrialProc;1244;721;Pr2_B;331;1585;1253;ListFischi1;0;;2;203;86954;13;13;1611;88565;460;1;1611;1;623;548;1151;1;1
TMS_Ibrahim;50;2;"<?xml version=""1.0""?>\n<Clock xmlns:dt=""urn:schemas-microsoft-com:datatypes""><Description dt:dt=""string"">E-Prime Primary Realtime Clock</Description><StartTime><Timestamp dt:dt=""int"">0</Timestamp><DateUtc dt:dt=""string"">2023-03-30T09:09:48Z</DateUtc></StartTime><FrequencyChanges><FrequencyChange><Frequency dt:dt=""r8"">3312832</Frequency><Timestamp dt:dt=""r8"">32015054315</Timestamp><Current dt:dt=""r8"">0</Current><DateUtc dt:dt=""string"">2023-03-30T09:09:48Z</DateUtc></FrequencyChange></FrequencyChanges></Clock>\n";TMS_Ibrahim-50-2;75.028;1.0.0.561;1;;1950947595;2.0.10.242;2.0.10.242;03-30-2023;30/03/2023 09:09;11:09:48;2.0.10.147;0;;-999999;21;20062;0;1;1308;21370;1;1;1;2;1;0;1;BlockProcFischi;BlockList;1;75;0;;-999999;32;34670;0;1;1771;36441;1;1;1;1;ProcFischi1;ListBlockFischi;9;1;2;0;1;3;Pr8_B;225;3;ug;3;2;21;1;9;3;1;TrialProc;421;724;Pr8_B;198;1949;1751;ListFischi1;0;;2;201;93973;18;133;2272;96245;672;1;1968;1;1869;244;1296;1;1
TMS_Ibrahim;50;2;"<?xml version=""1.0""?>\n<Clock xmlns:dt=""urn:schemas-microsoft-com:datatypes""><Description dt:dt=""string"">E-Prime Primary Realtime Clock</Description><StartTime><Timestamp dt:dt=""int"">0</Timestamp><DateUtc dt:dt=""string"">2023-03-30T09:09:48Z</DateUtc></StartTime><FrequencyChanges><FrequencyChange><Frequency dt:dt=""r8"">3312832</Frequency><Timestamp dt:dt=""r8"">32015054315</Timestamp><Current dt:dt=""r8"">0</Current><DateUtc dt:dt=""string"">2023-03-30T09:09:48Z</DateUtc></FrequencyChange></FrequencyChanges></Clock>\n";TMS_Ibrahim-50-2;75.028;1.0.0.561;1;;1950947595;2.0.10.242;2.0.10.242;03-30-2023;30/03/2023 09:09;11:09:48;2.0.10.147;0;;-999999;21;20062;0;1;1308;21370;1;1;1;2;1;0;1;BlockProcFischi;BlockList;1;75;0;;-999999;32;34670;0;1;1771;36441;1;1;1;1;ProcFischi1;ListBlockFischi;10;1;1;0;0;3;Po8_B;225;2;op;3;2;42;1;10;2;0;TrialProc;760;1248;Po8_B;46;1627;1581;ListFischi1;0;;2;203;100768;7;133;2261;103029;581;1;1653;1;732;461;1072;1;1
TMS_Ibrahim;50;2;"<?xml version=""1.0""?>\n<Clock xmlns:dt=""urn:schemas-microsoft-com:datatypes""><Description dt:dt=""string"">E-Prime Primary Realtime Clock</Description><StartTime><Timestamp dt:dt=""int"">0</Timestamp><DateUtc dt:dt=""string"">2023-03-30T09:09:48Z</DateUtc></StartTime><FrequencyChanges><FrequencyChange><Frequency dt:dt=""r8"">3312832</Frequency><Timestamp dt:dt=""r8"">32015054315</Timestamp><Current dt:dt=""r8"">0</Current><DateUtc dt:dt=""string"">2023-03-30T09:09:48Z</DateUtc></FrequencyChange></FrequencyChanges></Clock>\n";TMS_Ibrahim-50-2;75.028;1.0.0.561;1;;1950947595;2.0.10.242;2.0.10.242;03-30-2023;30/03/2023 09:09;11:09:48;2.0.10.147;0;;-999999;21;20062;0;1;1308;21370;1;1;1;2;1;0;1;BlockProcFischi;BlockList;1;75;0;;-999999;32;34670;0;1;1771;36441;1;1;1;1;ProcFischi1;ListBlockFischi;11;0;2;0;0;5;Pr5_B;;1;op;1;2;14;1;11;1;0;TrialProc;2426;678;Pr5_B;46;1676;1278;ListFischi1;0;;2;203;107535;11;155;2822;110357;438;1;1;1;358;414;-437;1;0
TMS_Ibrahim;50;2;"<?xml version=""1.0""?>\n<Clock xmlns:dt=""urn:schemas-microsoft-com:datatypes""><Description dt:dt=""string"">E-Prime Primary Realtime Clock</Description><StartTime><Timestamp dt:dt=""int"">0</Timestamp><DateUtc dt:dt=""string"">2023-03-30T09:09:48Z</DateUtc></StartTime><FrequencyChanges><FrequencyChange><Frequency dt:dt=""r8"">3312832</Frequency><Timestamp dt:dt=""r8"">32015054315</Timestamp><Current dt:dt=""r8"">0</Current><DateUtc dt:dt=""string"">2023-03-30T09:09:48Z</DateUtc></FrequencyChange></FrequencyChanges></Clock>\n";TMS_Ibrahim-50-2;75.028;1.0.0.561;1;;1950947595;2.0.10.242;2.0.10.242;03-30-2023;30/03/2023 09:09;11:09:48;2.0.10.147;0;;-999999;21;20062;0;1;1308;21370;1;1;1;2;1;0;1;BlockProcFischi;BlockList;1;75;0;;-999999;32;34670;0;1;1771;36441;1;1;1;1;ProcFischi1;ListBlockFischi;12;0;2;0;0;3;Pr2_B;;3;ug;1;2;27;1;12;3;1;TrialProc;788;718;Pr2_B;398;1676;1251;ListFischi1;0;;2;203;116131;12;13;1586;117717;610;1;1;1;81;343;-609;1;0
TMS_Ibrahim;50;2;"<?xml version=""1.0""?>\n<Clock xmlns:dt=""urn:schemas-microsoft-com:datatypes""><Description dt:dt=""string"">E-Prime Primary Realtime Clock</Description><StartTime><Timestamp dt:dt=""int"">0</Timestamp><DateUtc dt:dt=""string"">2023-03-30T09:09:48Z</DateUtc></StartTime><FrequencyChanges><FrequencyChange><Frequency dt:dt=""r8"">3312832</Frequency><Timestamp dt:dt=""r8"">32015054315</Timestamp><Current dt:dt=""r8"">0</Current><DateUtc dt:dt=""string"">2023-03-30T09:09:48Z</DateUtc></FrequencyChange></FrequencyChanges></Clock>\n";TMS_Ibrahim-50-2;75.028;1.0.0.561;1;;1950947595;2.0.10.242;2.0.10.242;03-30-2023;30/03/2023 09:09;11:09:48;2.0.10.147;0;;-999999;21;20062;0;1;1308;21370;1;1;1;2;1;0;1;BlockProcFischi;BlockList;1;75;0;;-999999;32;34670;0;1;1771;36441;1;1;1;1;ProcFischi1;ListBlockFischi;13;1;1;0;0;5;Po3_B;225;4;ug;5;2;60;1;13;4;1;TrialProc;625;1311;Po3_B;126;1453;1579;ListFischi1;0;;2;203;124920;6;15;1485;126405;509;1;1485;1;315;276;976;1;1
TMS_Ibrahim;50;2;"<?xml version=""1.0""?>\n<Clock xmlns:dt=""urn:schemas-microsoft-com:datatypes""><Description dt:dt=""string"">E-Prime Primary Realtime Clock</Description><StartTime><Timestamp dt:dt=""int"">0</Timestamp><DateUtc dt:dt=""string"">2023-03-30T09:09:48Z</DateUtc></StartTime><FrequencyChanges><FrequencyChange><Frequency dt:dt=""r8"">3312832</Frequency><Timestamp dt:dt=""r8"">32015054315</Timestamp><Current dt:dt=""r8"">0</Current><DateUtc dt:dt=""string"">2023-03-30T09:09:48Z</DateUtc></FrequencyChange></FrequencyChanges></Clock>\n";TMS_Ibrahim-50-2;75.028;1.0.0.561;1;;1950947595;2.0.10.242;2.0.10.242;03-30-2023;30/03/2023 09:09;11:09:48;2.0.10.147;0;;-999999;21;20062;0;1;1308;21370;1;1;1;2;1;0;1;BlockProcFischi;BlockList;1;75;0;;-999999;32;34670;0;1;1771;36441;1;1;1;1;ProcFischi1;ListBlockFischi;14;1;2;0;0;3;Pr4_B;200;3;ug;3;2;29;1;14;3;1;TrialProc;588;681;Pr4_B;98;1351;1253;ListFischi1;0;;2;201;132136;14;133;1485;133621;445;1;1373;1;296;283;928;1;1
TMS_Ibrahim;50;2;"<?xml version=""1.0""?>\n<Clock xmlns:dt=""urn:schemas-microsoft-com:datatypes""><Description dt:dt=""string"">E-Prime Primary Realtime Clock</Description><StartTime><Timestamp dt:dt=""int"">0</Timestamp><DateUtc dt:dt=""string"">2023-03-30T09:09:48Z</DateUtc></StartTime><FrequencyChanges><FrequencyChange><Frequency dt:dt=""r8"">3312832</Frequency><Timestamp dt:dt=""r8"">32015054315</Timestamp><Current dt:dt=""r8"">0</Current><DateUtc dt:dt=""string"">2023-03-30T09:09:48Z</DateUtc></FrequencyChange></FrequencyChanges></Clock>\n";TMS_Ibrahim-50-2;75.028;1.0.0.561;1;;1950947595;2.0.10.242;2.0.10.242;03-30-2023;30/03/2023 09:09;11:09:48;2.0.10.147;0;;-999999;21;20062;0;1;1308;21370;1;1;1;2;1;0;1;BlockProcFischi;BlockList;1;75;0;;-999999;32;34670;0;1;1771;36441;1;1;1;1;ProcFischi1;ListBlockFischi;15;1;2;0;0;5;Pr4_B;250;1;op;5;2;3;1;15;1;0;TrialProc;372;675;Pr4_B;297;1546;1248;ListFischi1;0;;2;203;139046;8;15;1566;140612;417;1;1566;1;1238;350;1149;1;1
TMS_Ibrahim;50;2;"<?xml version=""1.0""?>\n<Clock xmlns:dt=""urn:schemas-microsoft-com:datatypes""><Description dt:dt=""string"">E-Prime Primary Realtime Clock</Description><StartTime><Timestamp dt:dt=""int"">0</Timestamp><DateUtc dt:dt=""string"">2023-03-30T09:09:48Z</DateUtc></StartTime><FrequencyChanges><FrequencyChange><Frequency dt:dt=""r8"">3312832</Frequency><Timestamp dt:dt=""r8"">32015054315</Timestamp><Current dt:dt=""r8"">0</Current><DateUtc dt:dt=""string"">2023-03-30T09:09:48Z</DateUtc></FrequencyChange></FrequencyChanges></Clock>\n";TMS_Ibrahim-50-2;75.028;1.0.0.561;1;;1950947595;2.0.10.242;2.0.10.242;03-30-2023;30/03/2023 09:09;11:09:48;2.0.10.147;0;;-999999;21;20062;0;1;1308;21370;1;1;1;2;1;0;1;BlockProcFischi;BlockList;1;75;0;;-999999;32;34670;0;1;1771;36441;1;1;1;1;ProcFischi1;ListBlockFischi;16;1;2;0;0;3;Pr4_B;175;3;ug;3;2;24;1;16;3;1;TrialProc;522;678;Pr4_B;161;1411;1250;ListFischi1;0;;2;203;146081;10;13;1443;147524;387;1;1443;1;405;275;1056;1;1
TMS_Ibrahim;50;2;"<?xml version=""1.0""?>\n<Clock xmlns:dt=""urn:schemas-microsoft-com:datatypes""><Description dt:dt=""string"">E-Prime Primary Realtime Clock</Description><StartTime><Timestamp dt:dt=""int"">0</Timestamp><DateUtc dt:dt=""string"">2023-03-30T09:09:48Z</DateUtc></StartTime><FrequencyChanges><FrequencyChange><Frequency dt:dt=""r8"">3312832</Frequency><Timestamp dt:dt=""r8"">32015054315</Timestamp><Current dt:dt=""r8"">0</Current><DateUtc dt:dt=""string"">2023-03-30T09:09:48Z</DateUtc></FrequencyChange></FrequencyChanges></Clock>\n";TMS_Ibrahim-50-2;75.028;1.0.0.561;1;;1950947595;2.0.10.242;2.0.10.242;03-30-2023;30/03/2023 09:09;11:09:48;2.0.10.147;0;;-999999;21;20062;0;1;1308;21370;1;1;1;2;1;0;1;BlockProcFischi;BlockList;1;75;0;;-999999;32;34670;0;1;1771;36441;1;1;1;1;ProcFischi1;ListBlockFischi;17;1;1;0;0;3;Po5_B;200;2;op;3;2;36;1;17;2;0;TrialProc;712;987;Po5_B;74;1554;1480;ListFischi1;0;;2;201;153156;13;13;1584;154740;560;1;1584;1;652;347;1024;1;1
TMS_Ibrahim;50;2;"<?xml version=""1.0""?>\n<Clock xmlns:dt=""urn:schemas-microsoft-com:datatypes""><Description dt:dt=""string"">E-Prime Primary Realtime Clock</Description><StartTime><Timestamp dt:dt=""int"">0</Timestamp><DateUtc dt:dt=""string"">2023-03-30T09:09:48Z</DateUtc></StartTime><FrequencyChanges><FrequencyChange><Frequency dt:dt=""r8"">3312832</Frequency><Timestamp dt:dt=""r8"">32015054315</Timestamp><Current dt:dt=""r8"">0</Current><DateUtc dt:dt=""string"">2023-03-30T09:09:48Z</DateUtc></FrequencyChange></FrequencyChanges></Clock>\n";TMS_Ibrahim-50-2;75.028;1.0.0.561;1;;1950947595;2.0.10.242;2.0.10.242;03-30-2023;30/03/2023 09:09;11:09:48;2.0.10.147;0;;-999999;21;20062;0;1;1308;21370;1;1;1;2;1;0;1;BlockProcFischi;BlockList;1;75;0;;-999999;32;34670;0;1;1771;36441;1;1;1;1;ProcFischi1;ListBlockFischi;18;0;2;0;0;3;Pr4_B;;3;ug;1;2;19;1;18;3;1;TrialProc;997;675;Pr4_B;74;1554;1248;ListFischi1;0;;2;203;160384;9;13;1764;162148;548;1;1;1;265;247;-547;1;0
TMS_Ibrahim;50;2;"<?xml version=""1.0""?>\n<Clock xmlns:dt=""urn:schemas-microsoft-com:datatypes""><Description dt:dt=""string"">E-Prime Primary Realtime Clock</Description><StartTime><Timestamp dt:dt=""int"">0</Timestamp><DateUtc dt:dt=""string"">2023-03-30T09:09:48Z</DateUtc></StartTime><FrequencyChanges><FrequencyChange><Frequency dt:dt=""r8"">3312832</Frequency><Timestamp dt:dt=""r8"">32015054315</Timestamp><Current dt:dt=""r8"">0</Current><DateUtc dt:dt=""string"">2023-03-30T09:09:48Z</DateUtc></FrequencyChange></FrequencyChanges></Clock>\n";TMS_Ibrahim-50-2;75.028;1.0.0.561;1;;1950947595;2.0.10.242;2.0.10.242;03-30-2023;30/03/2023 09:09;11:09:48;2.0.10.147;0;;-999999;21;20062;0;1;1308;21370;1;1;1;2;1;0;1;BlockProcFischi;BlockList;1;75;0;;-999999;32;34670;0;1;1771;36441;1;1;1;1;ProcFischi1;ListBlockFischi;19;1;1;0;0;5;Po4_B;200;4;ug;5;2;51;1;19;4;1;TrialProc;768;1348;Po4_B;126;1596;1722;ListFischi1;0;;2;203;167388;15;15;1624;169012;456;1;1624;1;528;466;1168;1;1
TMS_Ibrahim;50;2;"<?xml version=""1.0""?>\n<Clock xmlns:dt=""urn:schemas-microsoft-com:datatypes""><Description dt:dt=""string"">E-Prime Primary Realtime Clock</Description><StartTime><Timestamp dt:dt=""int"">0</Timestamp><DateUtc dt:dt=""string"">2023-03-30T09:09:48Z</DateUtc></StartTime><FrequencyChanges><FrequencyChange><Frequency dt:dt=""r8"">3312832</Frequency><Timestamp dt:dt=""r8"">32015054315</Timestamp><Current dt:dt=""r8"">0</Current><DateUtc dt:dt=""string"">2023-03-30T09:09:48Z</DateUtc></FrequencyChange></FrequencyChanges></Clock>\n";TMS_Ibrahim-50-2;75.028;1.0.0.561;1;;1950947595;2.0.10.242;2.0.10.242;03-30-2023;30/03/2023 09:09;11:09:48;2.0.10.147;0;;-999999;21;20062;0;1;1308;21370;1;1;1;2;1;0;1;BlockProcFischi;BlockList;1;75;0;;-999999;32;34670;0;1;1771;36441;1;1;1;1;ProcFischi1;ListBlockFischi;20;1;2;0;1;5;Pr2_B;250;1;op;5;2;1;1;20;1;0;TrialProc;584;720;Pr2_B;150;1403;1252;ListFischi1;0;;2;201;174894;13;15;1430;176324;438;1;1430;1;733;318;992;1;1
TMS_Ibrahim;50;2;"<?xml version=""1.0""?>\n<Clock xmlns:dt=""urn:schemas-microsoft-com:datatypes""><Description dt:dt=""string"">E-Prime Primary Realtime Clock</Description><StartTime><Timestamp dt:dt=""int"">0</Timestamp><DateUtc dt:dt=""string"">2023-03-30T09:09:48Z</DateUtc></StartTime><FrequencyChanges><FrequencyChange><Frequency dt:dt=""r8"">3312832</Frequency><Timestamp dt:dt=""r8"">32015054315</Timestamp><Current dt:dt=""r8"">0</Current><DateUtc dt:dt=""string"">2023-03-30T09:09:48Z</DateUtc></FrequencyChange></FrequencyChanges></Clock>\n";TMS_Ibrahim-50-2;75.028;1.0.0.561;1;;1950947595;2.0.10.242;2.0.10.242;03-30-2023;30/03/2023 09:09;11:09:48;2.0.10.147;0;;-999999;21;20062;0;1;1308;21370;1;1;1;2;1;0;1;BlockProcFischi;BlockList;1;75;0;;-999999;32;34670;0;1;1771;36441;1;1;1;1;ProcFischi1;ListBlockFischi;21;1;2;0;0;5;Pr8_B;225;1;op;5;2;5;1;21;1;0;TrialProc;489;720;Pr8_B;43;1790;1747;ListFischi1;0;;2;203;181932;13;15;1815;183747;647;1;1815;1;519;304;1168;1;1
TMS_Ibrahim;50;2;"<?xml version=""1.0""?>\n<Clock xmlns:dt=""urn:schemas-microsoft-com:datatypes""><Description dt:dt=""string"">E-Prime Primary Realtime Clock</Description><StartTime><Timestamp dt:dt=""int"">0</Timestamp><DateUtc dt:dt=""string"">2023-03-30T09:09:48Z</DateUtc></StartTime><FrequencyChanges><FrequencyChange><Frequency dt:dt=""r8"">3312832</Frequency><Timestamp dt:dt=""r8"">32015054315</Timestamp><Current dt:dt=""r8"">0</Current><DateUtc dt:dt=""string"">2023-03-30T09:09:48Z</DateUtc></FrequencyChange></FrequencyChanges></Clock>\n";TMS_Ibrahim-50-2;75.028;1.0.0.561;1;;1950947595;2.0.10.242;2.0.10.242;03-30-2023;30/03/2023 09:09;11:09:48;2.0.10.147;0;;-999999;21;20062;0;1;1308;21370;1;1;1;2;1;0;1;BlockProcFischi;BlockList;1;75;0;;-999999;32;34670;0;1;1771;36441;1;1;1;1;ProcFischi1;ListBlockFischi;22;1;2;0;0;3;Pr8_B;175;3;ug;3;2;26;1;22;3;1;TrialProc;587;715;Pr8_B;191;1933;1743;ListFischi1;0;;2;201;189106;9;13;1953;191059;657;1;1953;1;582;350;1296;1;1
TMS_Ibrahim;50;2;"<?xml version=""1.0""?>\n<Clock xmlns:dt=""urn:schemas-microsoft-com:datatypes""><Description dt:dt=""string"">E-Prime Primary Realtime Clock</Description><StartTime><Timestamp dt:dt=""int"">0</Timestamp><DateUtc dt:dt=""string"">2023-03-30T09:09:48Z</DateUtc></StartTime><FrequencyChanges><FrequencyChange><Frequency dt:dt=""r8"">3312832</Frequency><Timestamp dt:dt=""r8"">32015054315</Timestamp><Current dt:dt=""r8"">0</Current><DateUtc dt:dt=""string"">2023-03-30T09:09:48Z</DateUtc></FrequencyChange></FrequencyChanges></Clock>\n";TMS_Ibrahim-50-2;75.028;1.0.0.561;1;;1950947595;2.0.10.242;2.0.10.242;03-30-2023;30/03/2023 09:09;11:09:48;2.0.10.147;0;;-999999;21;20062;0;1;1308;21370;1;1;1;2;1;0;1;BlockProcFischi;BlockList;1;75;0;;-999999;32;34670;0;1;1771;36441;1;1;1;1;ProcFischi1;ListBlockFischi;23;1;1;0;0;5;Po4_B;175;4;ug;5;2;61;1;23;4;1;TrialProc;458;1343;Po4_B;115;1601;1716;ListFischi1;0;;2;203;196103;10;15;1628;197731;460;1;1628;1;424;545;1168;1;1
TMS_Ibrahim;50;2;"<?xml version=""1.0""?>\n<Clock xmlns:dt=""urn:schemas-microsoft-com:datatypes""><Description dt:dt=""string"">E-Prime Primary Realtime Clock</Description><StartTime><Timestamp dt:dt=""int"">0</Timestamp><DateUtc dt:dt=""string"">2023-03-30T09:09:48Z</DateUtc></StartTime><FrequencyChanges><FrequencyChange><Frequency dt:dt=""r8"">3312832</Frequency><Timestamp dt:dt=""r8"">32015054315</Timestamp><Current dt:dt=""r8"">0</Current><DateUtc dt:dt=""string"">2023-03-30T09:09:48Z</DateUtc></FrequencyChange></FrequencyChanges></Clock>\n";TMS_Ibrahim-50-2;75.028;1.0.0.561;1;;1950947595;2.0.10.242;2.0.10.242;03-30-2023;30/03/2023 09:09;11:09:48;2.0.10.147;0;;-999999;21;20062;0;1;1308;21370;1;1;1;2;1;0;1;BlockProcFischi;BlockList;1;75;0;;-999999;32;34670;0;1;1771;36441;1;1;1;1;ProcFischi1;ListBlockFischi;24;1;2;0;0;3;Pr5_B;175;3;ug;3;2;20;1;24;3;1;TrialProc;539;679;Pr5_B;306;1584;1278;ListFischi1;0;;2;201;203311;12;13;1620;204931;580;1;1620;1;721;200;1040;1;1
TMS_Ibrahim;50;2;"<?xml version=""1.0""?>\n<Clock xmlns:dt=""urn:schemas-microsoft-com:datatypes""><Description dt:dt=""string"">E-Prime Primary Realtime Clock</Description><StartTime><Timestamp dt:dt=""int"">0</Timestamp><DateUtc dt:dt=""string"">2023-03-30T09:09:48Z</DateUtc></StartTime><FrequencyChanges><FrequencyChange><Frequency dt:dt=""r8"">3312832</Frequency><Timestamp dt:dt=""r8"">32015054315</Timestamp><Current dt:dt=""r8"">0</Current><DateUtc dt:dt=""string"">2023-03-30T09:09:48Z</DateUtc></FrequencyChange></FrequencyChanges></Clock>\n";TMS_Ibrahim-50-2;75.028;1.0.0.561;1;;1950947595;2.0.10.242;2.0.10.242;03-30-2023;30/03/2023 09:09;11:09:48;2.0.10.147;0;;-999999;21;20062;0;1;1308;21370;1;1;1;2;1;0;1;BlockProcFischi;BlockList;1;75;0;;-999999;32;34670;0;1;1771;36441;1;1;1;1;ProcFischi1;ListBlockFischi;25;1;1;0;0;3;Po2_B;175;2;op;3;2;38;1;25;2;0;TrialProc;574;1580;Po2_B;183;1623;1807;ListFischi1;0;;2;203;210793;7;13;1658;212451;458;1;1658;1;629;536;1200;1;1
TMS_Ibrahim;50;2;"<?xml version=""1.0""?>\n<Clock xmlns:dt=""urn:schemas-microsoft-com:datatypes""><Description dt:dt=""string"">E-Prime Primary Realtime Clock</Description><StartTime><Timestamp dt:dt=""int"">0</Timestamp><DateUtc dt:dt=""string"">2023-03-30T09:09:48Z</DateUtc></StartTime><FrequencyChanges><FrequencyChange><Frequency dt:dt=""r8"">3312832</Frequency><Timestamp dt:dt=""r8"">32015054315</Timestamp><Current dt:dt=""r8"">0</Current><DateUtc dt:dt=""string"">2023-03-30T09:09:48Z</DateUtc></FrequencyChange></FrequencyChanges></Clock>\n";TMS_Ibrahim-50-2;75.028;1.0.0.561;1;;1950947595;2.0.10.242;2.0.10.242;03-30-2023;30/03/2023 09:09;11:09:48;2.0.10.147;0;;-999999;21;20062;0;1;1308;21370;1;1;1;2;1;0;1;BlockProcFischi;BlockList;1;75;0;;-999999;32;34670;0;1;1771;36441;1;1;1;1;ProcFischi1;ListBlockFischi;26;1;1;0;0;5;Po5_B;150;4;ug;5;2;52;1;26;4;1;TrialProc;539;987;Po5_B;165;1645;1480;ListFischi1;0;;2;201;218197;14;15;1678;219875;398;1;1678;1;325;228;1280;1;1
TMS_Ibrahim;50;2;"<?xml version=""1.0""?>\n<Clock xmlns:dt=""urn:schemas-microsoft-com:datatypes""><Description dt:dt=""string"">E-Prime Primary Realtime Clock</Description><StartTime><Timestamp dt:dt=""int"">0</Timestamp><DateUtc dt:dt=""string"">2023-03-30T09:09:48Z</DateUtc></StartTime><FrequencyChanges><FrequencyChange><Frequency dt:dt=""r8"">3312832</Frequency><Timestamp dt:dt=""r8"">32015054315</Timestamp><Current dt:dt=""r8"">0</Current><DateUtc dt:dt=""string"">2023-03-30T09:09:48Z</DateUtc></FrequencyChange></FrequencyChanges></Clock>\n";TMS_Ibrahim-50-2;75.028;1.0.0.561;1;;1950947595;2.0.10.242;2.0.10.242;03-30-2023;30/03/2023 09:09;11:09:48;2.0.10.147;0;;-999999;21;20062;0;1;1308;21370;1;1;1;2;1;0;1;BlockProcFischi;BlockList;1;75;0;;-999999;32;34670;0;1;1771;36441;1;1;1;1;ProcFischi1;ListBlockFischi;27;1;1;0;0;3;Po3_B;175;2;op;3;2;39;1;27;2;0;TrialProc;658;1319;Po3_B;66;1519;1585;ListFischi1;0;;2;203;225235;13;13;1552;226787;384;1;1552;1;132;345;1168;1;1
TMS_Ibrahim;50;2;"<?xml version=""1.0""?>\n<Clock xmlns:dt=""urn:schemas-microsoft-com:datatypes""><Description dt:dt=""string"">E-Prime Primary Realtime Clock</Description><StartTime><Timestamp dt:dt=""int"">0</Timestamp><DateUtc dt:dt=""string"">2023-03-30T09:09:48Z</DateUtc></StartTime><FrequencyChanges><FrequencyChange><Frequency dt:dt=""r8"">3312832</Frequency><Timestamp dt:dt=""r8"">32015054315</Timestamp><Current dt:dt=""r8"">0</Current><DateUtc dt:dt=""string"">2023-03-30T09:09:48Z</DateUtc></FrequencyChange></FrequencyChanges></Clock>\n";TMS_Ibrahim-50-2;75.028;1.0.0.561;1;;1950947595;2.0.10.242;2.0.10.242;03-30-2023;30/03/2023 09:09;11:09:48;2.0.10.147;0;;-999999;21;20062;0;1;1308;21370;1;1;1;2;1;0;1;BlockProcFischi;BlockList;1;75;0;;-999999;32;34670;0;1;1771;36441;1;1;1;1;ProcFischi1;ListBlockFischi;28;1;1;0;0;3;Po4_B;150;2;op;3;2;35;1;28;2;0;TrialProc;485;1349;Po4_B;200;1522;1722;ListFischi1;0;;2;201;232377;15;13;1545;233922;442;1;1545;1;368;560;1103;1;1
TMS_Ibrahim;50;2;"<?xml version=""1.0""?>\n<Clock xmlns:dt=""urn:schemas-microsoft-com:datatypes""><Description dt:dt=""string"">E-Prime Primary Realtime Clock</Description><StartTime><Timestamp dt:dt=""int"">0</Timestamp><DateUtc dt:dt=""string"">2023-03-30T09:09:48Z</DateUtc></StartTime><FrequencyChanges><FrequencyChange><Frequency dt:dt=""r8"">3312832</Frequency><Timestamp dt:dt=""r8"">32015054315</Timestamp><Current dt:dt=""r8"">0</Current><DateUtc dt:dt=""string"">2023-03-30T09:09:48Z</DateUtc></FrequencyChange></FrequencyChanges></Clock>\n";TMS_Ibrahim-50-2;75.028;1.0.0.561;1;;1950947595;2.0.10.242;2.0.10.242;03-30-2023;30/03/2023 09:09;11:09:48;2.0.10.147;0;;-999999;21;20062;0;1;1308;21370;1;1;1;2;1;0;1;BlockProcFischi;BlockList;1;75;0;;-999999;32;34670;0;1;1771;36441;1;1;1;1;ProcFischi1;ListBlockFischi;29;1;1;0;0;5;Po4_B;150;4;ug;5;2;56;1;29;4;1;TrialProc;472;1341;Po4_B;243;1472;1715;ListFischi1;0;;2;203;239914;9;1555;2120;242034;408;1;1496;1;663;512;1088;1;1
TMS_Ibrahim;50;2;"<?xml version=""1.0""?>\n<Clock xmlns:dt=""urn:schemas-microsoft-com:datatypes""><Description dt:dt=""string"">E-Prime Primary Realtime Clock</Description><StartTime><Timestamp dt:dt=""int"">0</Timestamp><DateUtc dt:dt=""string"">2023-03-30T09:09:48Z</DateUtc></StartTime><FrequencyChanges><FrequencyChange><Frequency dt:dt=""r8"">3312832</Frequency><Timestamp dt:dt=""r8"">32015054315</Timestamp><Current dt:dt=""r8"">0</Current><DateUtc dt:dt=""string"">2023-03-30T09:09:48Z</DateUtc></FrequencyChange></FrequencyChanges></Clock>\n";TMS_Ibrahim-50-2;75.028;1.0.0.561;1;;1950947595;2.0.10.242;2.0.10.242;03-30-2023;30/03/2023 09:09;11:09:48;2.0.10.147;0;;-999999;21;20062;0;1;1308;21370;1;1;1;2;1;0;1;BlockProcFischi;BlockList;1;75;0;;-999999;32;34670;0;1;1771;36441;1;1;1;1;ProcFischi1;ListBlockFischi;30;1;2;0;1;3;Pr3_B;175;3;ug;3;2;18;1;30;3;1;TrialProc;453;726;Pr3_B;217;1508;1724;ListFischi1;0;;2;201;246569;18;13;1529;248098;633;1;1529;1;826;524;896;1;1
TMS_Ibrahim;50;2;"<?xml version=""1.0""?>\n<Clock xmlns:dt=""urn:schemas-microsoft-com:datatypes""><Description dt:dt=""string"">E-Prime Primary Realtime Clock</Description><StartTime><Timestamp dt:dt=""int"">0</Timestamp><DateUtc dt:dt=""string"">2023-03-30T09:09:48Z</DateUtc></StartTime><FrequencyChanges><FrequencyChange><Frequency dt:dt=""r8"">3312832</Frequency><Timestamp dt:dt=""r8"">32015054315</Timestamp><Current dt:dt=""r8"">0</Current><DateUtc dt:dt=""string"">2023-03-30T09:09:48Z</DateUtc></FrequencyChange></FrequencyChanges></Clock>\n";TMS_Ibrahim-50-2;75.028;1.0.0.561;1;;1950947595;2.0.10.242;2.0.10.242;03-30-2023;30/03/2023 09:09;11:09:48;2.0.10.147;0;;-999999;21;20062;0;1;1308;21370;1;1;1;2;1;0;1;BlockProcFischi;BlockList;1;75;0;;-999999;32;34670;0;1;1771;36441;1;1;1;1;ProcFischi1;ListBlockFischi;31;1;1;0;1;3;Po5_B;150;2;op;3;2;46;1;31;2;0;TrialProc;579;981;Po5_B;119;1593;1474;ListFischi1;0;;2;203;253988;9;133;1998;255986;318;1;1614;1;645;448;1296;1;1
TMS_Ibrahim;50;2;"<?xml version=""1.0""?>\n<Clock xmlns:dt=""urn:schemas-microsoft-com:datatypes""><Description dt:dt=""string"">E-Prime Primary Realtime Clock</Description><StartTime><Timestamp dt:dt=""int"">0</Timestamp><DateUtc dt:dt=""string"">2023-03-30T09:09:48Z</DateUtc></StartTime><FrequencyChanges><FrequencyChange><Frequency dt:dt=""r8"">3312832</Frequency><Timestamp dt:dt=""r8"">32015054315</Timestamp><Current dt:dt=""r8"">0</Current><DateUtc dt:dt=""string"">2023-03-30T09:09:48Z</DateUtc></FrequencyChange></FrequencyChanges></Clock>\n";TMS_Ibrahim-50-2;75.028;1.0.0.561;1;;1950947595;2.0.10.242;2.0.10.242;03-30-2023;30/03/2023 09:09;11:09:48;2.0.10.147;0;;-999999;21;20062;0;1;1308;21370;1;1;1;2;1;0;1;BlockProcFischi;BlockList;1;75;0;;-999999;32;34670;0;1;1771;36441;1;1;1;1;ProcFischi1;ListBlockFischi;32;1;2;0;0;5;Pr5_B;200;1;op;5;2;4;1;32;1;0;TrialProc;482;678;Pr5_B;45;1323;1278;ListFischi1;0;;2;201;260877;11;15;1349;262226;325;1;1349;1;821;463;1024;1;1
TMS_Ibrahim;50;2;"<?xml version=""1.0""?>\n<Clock xmlns:dt=""urn:schemas-microsoft-com:datatypes""><Description dt:dt=""string"">E-Prime Primary Realtime Clock</Description><StartTime><Timestamp dt:dt=""int"">0</Timestamp><DateUtc dt:dt=""string"">2023-03-30T09:09:48Z</DateUtc></StartTime><FrequencyChanges><FrequencyChange><Frequency dt:dt=""r8"">3312832</Frequency><Timestamp dt:dt=""r8"">32015054315</Timestamp><Current dt:dt=""r8"">0</Current><DateUtc dt:dt=""string"">2023-03-30T09:09:48Z</DateUtc></FrequencyChange></FrequencyChanges></Clock>\n";TMS_Ibrahim-50-2;75.028;1.0.0.561;1;;1950947595;2.0.10.242;2.0.10.242;03-30-2023;30/03/2023 09:09;11:09:48;2.0.10.147;0;;-999999;21;20062;0;1;1308;21370;1;1;1;2;1;0;1;BlockProcFischi;BlockList;1;75;0;;-999999;32;34670;0;1;1771;36441;1;1;1;1;ProcFischi1;ListBlockFischi;33;0;1;1;1;5;Pomod_B;;4;ug;3;2;63;1;33;4;1;TrialProc;629;1315;Pomod_B;186;1489;1675;ListFischi1;0;;2;203;268010;9;1355;2648;270658;328;1;1512;1;731;355;1184;1;0
TMS_Ibrahim;50;2;"<?xml version=""1.0""?>\n<Clock xmlns:dt=""urn:schemas-microsoft-com:datatypes""><Description dt:dt=""string"">E-Prime Primary Realtime Clock</Description><StartTime><Timestamp dt:dt=""int"">0</Timestamp><DateUtc dt:dt=""string"">2023-03-30T09:09:48Z</DateUtc></StartTime><FrequencyChanges><FrequencyChange><Frequency dt:dt=""r8"">3312832</Frequency><Timestamp dt:dt=""r8"">32015054315</Timestamp><Current dt:dt=""r8"">0</Current><DateUtc dt:dt=""string"">2023-03-30T09:09:48Z</DateUtc></FrequencyChange></FrequencyChanges></Clock>\n";TMS_Ibrahim-50-2;75.028;1.0.0.561;1;;1950947595;2.0.10.242;2.0.10.242;03-30-2023;30/03/2023 09:09;11:09:48;2.0.10.147;0;;-999999;21;20062;0;1;1308;21370;1;1;1;2;1;0;1;BlockProcFischi;BlockList;1;75;0;;-999999;32;34670;0;1;1771;36441;1;1;1;1;ProcFischi1;ListBlockFischi;34;1;1;0;0;3;Po5_B;125;2;op;3;2;41;1;34;2;0;TrialProc;553;986;Po5_B;14;1465;1478;ListFischi1;0;;2;201;274125;11;13;1493;275618;437;1;1493;1;1123;573;1056;1;1
TMS_Ibrahim;50;2;"<?xml version=""1.0""?>\n<Clock xmlns:dt=""urn:schemas-microsoft-com:datatypes""><Description dt:dt=""string"">E-Prime Primary Realtime Clock</Description><StartTime><Timestamp dt:dt=""int"">0</Timestamp><DateUtc dt:dt=""string"">2023-03-30T09:09:48Z</DateUtc></StartTime><FrequencyChanges><FrequencyChange><Frequency dt:dt=""r8"">3312832</Frequency><Timestamp dt:dt=""r8"">32015054315</Timestamp><Current dt:dt=""r8"">0</Current><DateUtc dt:dt=""string"">2023-03-30T09:09:48Z</DateUtc></FrequencyChange></FrequencyChanges></Clock>\n";TMS_Ibrahim-50-2;75.028;1.0.0.561;1;;1950947595;2.0.10.242;2.0.10.242;03-30-2023;30/03/2023 09:09;11:09:48;2.0.10.147;0;;-999999;21;20062;0;1;1308;21370;1;1;1;2;1;0;1;BlockProcFischi;BlockList;1;75;0;;-999999;32;34670;0;1;1771;36441;1;1;1;1;ProcFischi1;ListBlockFischi;35;1;1;0;0;3;Po3_B;100;2;op;3;2;34;1;35;2;0;TrialProc;587;1312;Po3_B;8;1572;1580;ListFischi1;0;;2;203;281485;9;13;1604;283089;85;1;1604;1;730;395;1519;1;1
TMS_Ibrahim;50;2;"<?xml version=""1.0""?>\n<Clock xmlns:dt=""urn:schemas-microsoft-com:datatypes""><Description dt:dt=""string"">E-Prime Primary Realtime Clock</Description><StartTime><Timestamp dt:dt=""int"">0</Timestamp><DateUtc dt:dt=""string"">2023-03-30T09:09:48Z</DateUtc></StartTime><FrequencyChanges><FrequencyChange><Frequency dt:dt=""r8"">3312832</Frequency><Timestamp dt:dt=""r8"">32015054315</Timestamp><Current dt:dt=""r8"">0</Current><DateUtc dt:dt=""string"">2023-03-30T09:09:48Z</DateUtc></FrequencyChange></FrequencyChanges></Clock>\n";TMS_Ibrahim-50-2;75.028;1.0.0.561;1;;1950947595;2.0.10.242;2.0.10.242;03-30-2023;30/03/2023 09:09;11:09:48;2.0.10.147;0;;-999999;21;20062;0;1;1308;21370;1;1;1;2;1;0;1;BlockProcFischi;BlockList;1;75;0;;-999999;32;34670;0;1;1771;36441;1;1;1;1;ProcFischi1;ListBlockFischi;36;1;1;0;1;5;Po3_B;150;4;ug;5;2;55;1;36;4;1;TrialProc;466;1316;Po3_B;48;1631;1583;ListFischi1;0;;2;203;288667;11;15;1654;290321;310;1;1654;1;537;345;1344;1;1
TMS_Ibrahim;50;2;"<?xml version=""1.0""?>\n<Clock xmlns:dt=""urn:schemas-microsoft-com:datatypes""><Description dt:dt=""string"">E-Prime Primary Realtime Clock</Description><StartTime><Timestamp dt:dt=""int"">0</Timestamp><DateUtc dt:dt=""string"">2023-03-30T09:09:48Z</DateUtc></StartTime><FrequencyChanges><FrequencyChange><Frequency dt:dt=""r8"">3312832</Frequency><Timestamp dt:dt=""r8"">32015054315</Timestamp><Current dt:dt=""r8"">0</Current><DateUtc dt:dt=""string"">2023-03-30T09:09:48Z</DateUtc></FrequencyChange></FrequencyChanges></Clock>\n";TMS_Ibrahim-50-2;75.028;1.0.0.561;1;;1950947595;2.0.10.242;2.0.10.242;03-30-2023;30/03/2023 09:09;11:09:48;2.0.10.147;0;;-999999;21;20062;0;1;1308;21370;1;1;1;2;1;0;1;BlockProcFischi;BlockList;1;75;0;;-999999;32;34670;0;1;1771;36441;1;1;1;1;ProcFischi1;ListBlockFischi;37;1;1;0;0;3;Po2_B;75;2;op;3;2;33;1;37;2;0;TrialProc;544;1584;Po2_B;21;1790;1811;ListFischi1;0;;2;201;295758;10;13;1811;297569;387;1;1811;1;603;404;1424;1;1
TMS_Ibrahim;50;2;"<?xml version=""1.0""?>\n<Clock xmlns:dt=""urn:schemas-microsoft-com:datatypes""><Description dt:dt=""string"">E-Prime Primary Realtime Clock</Description><StartTime><Timestamp dt:dt=""int"">0</Timestamp><DateUtc dt:dt=""string"">2023-03-30T09:09:48Z</DateUtc></StartTime><FrequencyChanges><FrequencyChange><Frequency dt:dt=""r8"">3312832</Frequency><Timestamp dt:dt=""r8"">32015054315</Timestamp><Current dt:dt=""r8"">0</Current><DateUtc dt:dt=""string"">2023-03-30T09:09:48Z</DateUtc></FrequencyChange></FrequencyChanges></Clock>\n";TMS_Ibrahim-50-2;75.028;1.0.0.561;1;;1950947595;2.0.10.242;2.0.10.242;03-30-2023;30/03/2023 09:09;11:09:48;2.0.10.147;0;;-999999;21;20062;0;1;1308;21370;1;1;1;2;1;0;1;BlockProcFischi;BlockList;1;75;0;;-999999;32;34670;0;1;1771;36441;1;1;1;1;ProcFischi1;ListBlockFischi;38;1;1;1;0;5;Pomod_B;125;4;ug;5;2;64;1;38;4;1;TrialProc;1416;1316;Pomod_B;192;1868;1676;ListFischi1;0;;2;203;302889;10;15;1896;304785;552;1;1896;1;396;480;1344;1;1
TMS_Ibrahim;50;2;"<?xml version=""1.0""?>\n<Clock xmlns:dt=""urn:schemas-microsoft-com:datatypes""><Description dt:dt=""string"">E-Prime Primary Realtime Clock</Description><StartTime><Timestamp dt:dt=""int"">0</Timestamp><DateUtc dt:dt=""string"">2023-03-30T09:09:48Z</DateUtc></StartTime><FrequencyChanges><FrequencyChange><Frequency dt:dt=""r8"">3312832</Frequency><Timestamp dt:dt=""r8"">32015054315</Timestamp><Current dt:dt=""r8"">0</Current><DateUtc dt:dt=""string"">2023-03-30T09:09:48Z</DateUtc></FrequencyChange></FrequencyChanges></Clock>\n";TMS_Ibrahim-50-2;75.028;1.0.0.561;1;;1950947595;2.0.10.242;2.0.10.242;03-30-2023;30/03/2023 09:09;11:09:48;2.0.10.147;0;;-999999;21;20062;0;1;1308;21370;1;1;1;2;1;0;1;BlockProcFischi;BlockList;1;75;0;;-999999;32;34670;0;1;1771;36441;1;1;1;1;ProcFischi1;ListBlockFischi;39;1;2;0;0;5;Pr4_B;175;1;op;5;2;8;1;39;1;0;TrialProc;908;680;Pr4_B;304;1557;1253;ListFischi1;0;;2;201;309818;12;15;1591;311409;455;1;1591;1;904;279;1136;1;1
TMS_Ibrahim;50;2;"<?xml version=""1.0""?>\n<Clock xmlns:dt=""urn:schemas-microsoft-com:datatypes""><Description dt:dt=""string"">E-Prime Primary Realtime Clock</Description><StartTime><Timestamp dt:dt=""int"">0</Timestamp><DateUtc dt:dt=""string"">2023-03-30T09:09:48Z</DateUtc></StartTime><FrequencyChanges><FrequencyChange><Frequency dt:dt=""r8"">3312832</Frequency><Timestamp dt:dt=""r8"">32015054315</Timestamp><Current dt:dt=""r8"">0</Current><DateUtc dt:dt=""string"">2023-03-30T09:09:48Z</DateUtc></FrequencyChange></FrequencyChanges></Clock>\n";TMS_Ibrahim-50-2;75.028;1.0.0.561;1;;1950947595;2.0.10.242;2.0.10.242;03-30-2023;30/03/2023 09:09;11:09:48;2.0.10.147;0;;-999999;21;20062;0;1;1308;21370;1;1;1;2;1;0;1;BlockProcFischi;BlockList;1;75;0;;-999999;32;34670;0;1;1771;36441;1;1;1;1;ProcFischi1;ListBlockFischi;40;1;1;0;1;5;Po3_B;125;4;ug;5;2;50;1;40;4;1;TrialProc;505;1318;Po3_B;112;1697;1585;ListFischi1;0;;2;203;316708;12;155;2029;318737;414;1;1725;1;993;236;1311;1;1
TMS_Ibrahim;50;2;"<?xml version=""1.0""?>\n<Clock xmlns:dt=""urn:schemas-microsoft-com:datatypes""><Description dt:dt=""string"">E-Prime Primary Realtime Clock</Description><StartTime><Timestamp dt:dt=""int"">0</Timestamp><DateUtc dt:dt=""string"">2023-03-30T09:09:48Z</DateUtc></StartTime><FrequencyChanges><FrequencyChange><Frequency dt:dt=""r8"">3312832</Frequency><Timestamp dt:dt=""r8"">32015054315</Timestamp><Current dt:dt=""r8"">0</Current><DateUtc dt:dt=""string"">2023-03-30T09:09:48Z</DateUtc></FrequencyChange></FrequencyChanges></Clock>\n";TMS_Ibrahim-50-2;75.028;1.0.0.561;1;;1950947595;2.0.10.242;2.0.10.242;03-30-2023;30/03/2023 09:09;11:09:48;2.0.10.147;0;;-999999;21;20062;0;1;1308;21370;1;1;1;2;1;0;1;BlockProcFischi;BlockList;1;75;0;;-999999;32;34670;0;1;1771;36441;1;1;1;1;ProcFischi1;ListBlockFischi;41;1;2;0;1;5;Pr5_B;175;1;op;5;2;9;1;41;1;0;TrialProc;494;683;Pr5_B;169;1451;1282;ListFischi1;0;;2;201;323448;16;15;1481;324929;377;1;1481;1;1054;542;1104;1;1
TMS_Ibrahim;50;2;"<?xml version=""1.0""?>\n<Clock xmlns:dt=""urn:schemas-microsoft-com:datatypes""><Description dt:dt=""string"">E-Prime Primary Realtime Clock</Description><StartTime><Timestamp dt:dt=""int"">0</Timestamp><DateUtc dt:dt=""string"">2023-03-30T09:09:48Z</DateUtc></StartTime><FrequencyChanges><FrequencyChange><Frequency dt:dt=""r8"">3312832</Frequency><Timestamp dt:dt=""r8"">32015054315</Timestamp><Current dt:dt=""r8"">0</Current><DateUtc dt:dt=""string"">2023-03-30T09:09:48Z</DateUtc></FrequencyChange></FrequencyChanges></Clock>\n";TMS_Ibrahim-50-2;75.028;1.0.0.561;1;;1950947595;2.0.10.242;2.0.10.242;03-30-2023;30/03/2023 09:09;11:09:48;2.0.10.147;0;;-999999;21;20062;0;1;1308;21370;1;1;1;2;1;0;1;BlockProcFischi;BlockList;1;75;0;;-999999;32;34670;0;1;1771;36441;1;1;1;1;ProcFischi1;ListBlockFischi;42;1;1;0;1;5;Po2_B;125;4;ug;5;2;49;1;42;4;1;TrialProc;559;1582;Po2_B;68;1741;1808;ListFischi1;0;;2;203;330520;9;155;3192;333712;328;1;1768;1;692;494;1440;1;1
TMS_Ibrahim;50;2;"<?xml version=""1.0""?>\n<Clock xmlns:dt=""urn:schemas-microsoft-com:datatypes""><Description dt:dt=""string"">E-Prime Primary Realtime Clock</Description><StartTime><Timestamp dt:dt=""int"">0</Timestamp><DateUtc dt:dt=""string"">2023-03-30T09:09:48Z</DateUtc></StartTime><FrequencyChanges><FrequencyChange><Frequency dt:dt=""r8"">3312832</Frequency><Timestamp dt:dt=""r8"">32015054315</Timestamp><Current dt:dt=""r8"">0</Current><DateUtc dt:dt=""string"">2023-03-30T09:09:48Z</DateUtc></FrequencyChange></FrequencyChanges></Clock>\n";TMS_Ibrahim-50-2;75.028;1.0.0.561;1;;1950947595;2.0.10.242;2.0.10.242;03-30-2023;30/03/2023 09:09;11:09:48;2.0.10.147;0;;-999999;21;20062;0;1;1308;21370;1;1;1;2;1;0;1;BlockProcFischi;BlockList;1;75;0;;-999999;32;34670;0;1;1771;36441;1;1;1;1;ProcFischi1;ListBlockFischi;43;1;1;0;0;5;Po2_B;100;4;ug;5;2;59;1;43;4;1;TrialProc;583;1585;Po2_B;109;1703;1813;ListFischi1;0;;2;201;337926;13;15;1738;339664;298;1;1738;1;562;506;1440;1;1
TMS_Ibrahim;50;2;"<?xml version=""1.0""?>\n<Clock xmlns:dt=""urn:schemas-microsoft-com:datatypes""><Description dt:dt=""string"">E-Prime Primary Realtime Clock</Description><StartTime><Timestamp dt:dt=""int"">0</Timestamp><DateUtc dt:dt=""string"">2023-03-30T09:09:48Z</DateUtc></StartTime><FrequencyChanges><FrequencyChange><Frequency dt:dt=""r8"">3312832</Frequency><Timestamp dt:dt=""r8"">32015054315</Timestamp><Current dt:dt=""r8"">0</Current><DateUtc dt:dt=""string"">2023-03-30T09:09:48Z</DateUtc></FrequencyChange></FrequencyChanges></Clock>\n";TMS_Ibrahim-50-2;75.028;1.0.0.561;1;;1950947595;2.0.10.242;2.0.10.242;03-30-2023;30/03/2023 09:09;11:09:48;2.0.10.147;0;;-999999;21;20062;0;1;1308;21370;1;1;1;2;1;0;1;BlockProcFischi;BlockList;1;75;0;;-999999;32;34670;0;1;1771;36441;1;1;1;1;ProcFischi1;ListBlockFischi;44;1;1;0;0;5;Po2_B;100;4;ug;5;2;54;1;44;4;1;TrialProc;865;1580;Po2_B;367;2175;1808;ListFischi1;0;;2;203;345260;10;155;3076;348336;324;1;2196;1;756;414;1872;1;1
TMS_Ibrahim;50;2;"<?xml version=""1.0""?>\n<Clock xmlns:dt=""urn:schemas-microsoft-com:datatypes""><Description dt:dt=""string"">E-Prime Primary Realtime Clock</Description><StartTime><Timestamp dt:dt=""int"">0</Timestamp><DateUtc dt:dt=""string"">2023-03-30T09:09:48Z</DateUtc></StartTime><FrequencyChanges><FrequencyChange><Frequency dt:dt=""r8"">3312832</Frequency><Timestamp dt:dt=""r8"">32015054315</Timestamp><Current dt:dt=""r8"">0</Current><DateUtc dt:dt=""string"">2023-03-30T09:09:48Z</DateUtc></FrequencyChange></FrequencyChanges></Clock>\n";TMS_Ibrahim-50-2;75.028;1.0.0.561;1;;1950947595;2.0.10.242;2.0.10.242;03-30-2023;30/03/2023 09:09;11:09:48;2.0.10.147;0;;-999999;21;20062;0;1;1308;21370;1;1;1;2;1;0;1;BlockProcFischi;BlockList;1;75;0;;-999999;32;34670;0;1;1771;36441;1;1;1;1;ProcFischi1;ListBlockFischi;45;1;2;0;1;5;Pr2_B;175;1;op;5;2;6;1;45;1;0;TrialProc;538;6000;Pr2_B;169;6000;6000;ListFischi1;0;;2;203;351231;10;155;1713;352944;417;1;1441;1;519;309;1024;1;1
TMS_Ibrahim;50;2;"<?xml version=""1.0""?>\n<Clock xmlns:dt=""urn:schemas-microsoft-com:datatypes""><Description dt:dt=""string"">E-Prime Primary Realtime Clock</Description><StartTime><Timestamp dt:dt=""int"">0</Timestamp><DateUtc dt:dt=""string"">2023-03-30T09:09:48Z</DateUtc></StartTime><FrequencyChanges><FrequencyChange><Frequency dt:dt=""r8"">3312832</Frequency><Timestamp dt:dt=""r8"">32015054315</Timestamp><Current dt:dt=""r8"">0</Current><DateUtc dt:dt=""string"">2023-03-30T09:09:48Z</DateUtc></FrequencyChange></FrequencyChanges></Clock>\n";TMS_Ibrahim-50-2;75.028;1.0.0.561;1;;1950947595;2.0.10.242;2.0.10.242;03-30-2023;30/03/2023 09:09;11:09:48;2.0.10.147;0;;-999999;21;20062;0;1;1308;21370;1;1;1;2;1;0;1;BlockProcFischi;BlockList;1;75;0;;-999999;32;34670;0;1;1771;36441;1;1;1;1;ProcFischi1;ListBlockFischi;46;1;1;0;1;5;Po5_B;100;4;ug;5;2;57;1;46;4;1;TrialProc;648;984;Po5_B;97;1382;1478;ListFischi1;0;;2;201;357921;10;15;1407;359328;223;1;1407;1;575;438;1184;1;1
TMS_Ibrahim;50;2;"<?xml version=""1.0""?>\n<Clock xmlns:dt=""urn:schemas-microsoft-com:datatypes""><Description dt:dt=""string"">E-Prime Primary Realtime Clock</Description><StartTime><Timestamp dt:dt=""int"">0</Timestamp><DateUtc dt:dt=""string"">2023-03-30T09:09:48Z</DateUtc></StartTime><FrequencyChanges><FrequencyChange><Frequency dt:dt=""r8"">3312832</Frequency><Timestamp dt:dt=""r8"">32015054315</Timestamp><Current dt:dt=""r8"">0</Current><DateUtc dt:dt=""string"">2023-03-30T09:09:48Z</DateUtc></FrequencyChange></FrequencyChanges></Clock>\n";TMS_Ibrahim-50-2;75.028;1.0.0.561;1;;1950947595;2.0.10.242;2.0.10.242;03-30-2023;30/03/2023 09:09;11:09:48;2.0.10.147;0;;-999999;21;20062;0;1;1308;21370;1;1;1;2;1;0;1;BlockProcFischi;BlockList;1;75;0;;-999999;32;34670;0;1;1771;36441;1;1;1;1;ProcFischi1;ListBlockFischi;47;1;2;0;2;3;Pr5_B;175;3;ug;3;2;25;1;47;3;1;TrialProc;522;679;Pr5_B;132;1411;1279;ListFischi1;0;;2;203;365357;12;13;1443;366800;323;1;1443;1;536;393;1120;1;1
TMS_Ibrahim;50;2;"<?xml version=""1.0""?>\n<Clock xmlns:dt=""urn:schemas-microsoft-com:datatypes""><Description dt:dt=""string"">E-Prime Primary Realtime Clock</Description><StartTime><Timestamp dt:dt=""int"">0</Timestamp><DateUtc dt:dt=""string"">2023-03-30T09:09:48Z</DateUtc></StartTime><FrequencyChanges><FrequencyChange><Frequency dt:dt=""r8"">3312832</Frequency><Timestamp dt:dt=""r8"">32015054315</Timestamp><Current dt:dt=""r8"">0</Current><DateUtc dt:dt=""string"">2023-03-30T09:09:48Z</DateUtc></FrequencyChange></FrequencyChanges></Clock>\n";TMS_Ibrahim-50-2;75.028;1.0.0.561;1;;1950947595;2.0.10.242;2.0.10.242;03-30-2023;30/03/2023 09:09;11:09:48;2.0.10.147;0;;-999999;21;20062;0;1;1308;21370;1;1;1;2;1;0;1;BlockProcFischi;BlockList;1;75;0;;-999999;32;34670;0;1;1771;36441;1;1;1;1;ProcFischi1;ListBlockFischi;48;1;2;0;0;3;Pr2_B;150;3;ug;3;2;17;1;48;3;1;TrialProc;572;725;Pr2_B;113;1372;1258;ListFischi1;0;;2;201;372361;18;13;1399;373760;199;1;1399;1;681;345;1200;1;1
TMS_Ibrahim;50;2;"<?xml version=""1.0""?>\n<Clock xmlns:dt=""urn:schemas-microsoft-com:datatypes""><Description dt:dt=""string"">E-Prime Primary Realtime Clock</Description><StartTime><Timestamp dt:dt=""int"">0</Timestamp><DateUtc dt:dt=""string"">2023-03-30T09:09:48Z</DateUtc></StartTime><FrequencyChanges><FrequencyChange><Frequency dt:dt=""r8"">3312832</Frequency><Timestamp dt:dt=""r8"">32015054315</Timestamp><Current dt:dt=""r8"">0</Current><DateUtc dt:dt=""string"">2023-03-30T09:09:48Z</DateUtc></FrequencyChange></FrequencyChanges></Clock>\n";TMS_Ibrahim-50-2;75.028;1.0.0.561;1;;1950947595;2.0.10.242;2.0.10.242;03-30-2023;30/03/2023 09:09;11:09:48;2.0.10.147;0;;-999999;21;20062;0;1;1308;21370;1;1;1;2;1;0;1;BlockProcFischi;BlockList;1;75;0;;-999999;32;34670;0;1;1771;36441;1;1;1;1;ProcFischi1;ListBlockFischi;49;1;1;0;0;3;Po2_B;50;2;op;3;2;43;1;49;2;0;TrialProc;553;1584;Po2_B;85;1896;1811;ListFischi1;0;;2;203;379352;11;13;1927;381279;359;1;1927;1;391;330;1568;1;1
TMS_Ibrahim;50;2;"<?xml version=""1.0""?>\n<Clock xmlns:dt=""urn:schemas-microsoft-com:datatypes""><Description dt:dt=""string"">E-Prime Primary Realtime Clock</Description><StartTime><Timestamp dt:dt=""int"">0</Timestamp><DateUtc dt:dt=""string"">2023-03-30T09:09:48Z</DateUtc></StartTime><FrequencyChanges><FrequencyChange><Frequency dt:dt=""r8"">3312832</Frequency><Timestamp dt:dt=""r8"">32015054315</Timestamp><Current dt:dt=""r8"">0</Current><DateUtc dt:dt=""string"">2023-03-30T09:09:48Z</DateUtc></FrequencyChange></FrequencyChanges></Clock>\n";TMS_Ibrahim-50-2;75.028;1.0.0.561;1;;1950947595;2.0.10.242;2.0.10.242;03-30-2023;30/03/2023 09:09;11:09:48;2.0.10.147;0;;-999999;21;20062;0;1;1308;21370;1;1;1;2;1;0;1;BlockProcFischi;BlockList;1;75;0;;-999999;32;34670;0;1;1771;36441;1;1;1;1;ProcFischi1;ListBlockFischi;50;1;2;0;1;5;Pr3_B;175;1;op;5;2;2;1;50;1;0;TrialProc;526;721;Pr3_B;59;1778;1720;ListFischi1;0;;2;201;386613;14;15;1802;388415;283;1;1802;1;512;371;1519;1;1
TMS_Ibrahim;50;2;"<?xml version=""1.0""?>\n<Clock xmlns:dt=""urn:schemas-microsoft-com:datatypes""><Description dt:dt=""string"">E-Prime Primary Realtime Clock</Description><StartTime><Timestamp dt:dt=""int"">0</Timestamp><DateUtc dt:dt=""string"">2023-03-30T09:09:48Z</DateUtc></StartTime><FrequencyChanges><FrequencyChange><Frequency dt:dt=""r8"">3312832</Frequency><Timestamp dt:dt=""r8"">32015054315</Timestamp><Current dt:dt=""r8"">0</Current><DateUtc dt:dt=""string"">2023-03-30T09:09:48Z</DateUtc></FrequencyChange></FrequencyChanges></Clock>\n";TMS_Ibrahim-50-2;75.028;1.0.0.561;1;;1950947595;2.0.10.242;2.0.10.242;03-30-2023;30/03/2023 09:09;11:09:48;2.0.10.147;0;;-999999;21;20062;0;1;1308;21370;1;1;1;2;1;0;1;BlockProcFischi;BlockList;1;75;0;;-999999;32;34670;0;1;1771;36441;1;1;1;1;ProcFischi1;ListBlockFischi;51;1;2;0;0;5;Pr4_B;150;1;op;5;2;13;1;51;1;0;TrialProc;429;675;Pr4_B;101;1349;1248;ListFischi1;0;;2;203;393615;10;15;1376;394991;256;1;1376;1;828;445;1120;1;1
TMS_Ibrahim;50;2;"<?xml version=""1.0""?>\n<Clock xmlns:dt=""urn:schemas-microsoft-com:datatypes""><Description dt:dt=""string"">E-Prime Primary Realtime Clock</Description><StartTime><Timestamp dt:dt=""int"">0</Timestamp><DateUtc dt:dt=""string"">2023-03-30T09:09:48Z</DateUtc></StartTime><FrequencyChanges><FrequencyChange><Frequency dt:dt=""r8"">3312832</Frequency><Timestamp dt:dt=""r8"">32015054315</Timestamp><Current dt:dt=""r8"">0</Current><DateUtc dt:dt=""string"">2023-03-30T09:09:48Z</DateUtc></FrequencyChange></FrequencyChanges></Clock>\n";TMS_Ibrahim-50-2;75.028;1.0.0.561;1;;1950947595;2.0.10.242;2.0.10.242;03-30-2023;30/03/2023 09:09;11:09:48;2.0.10.147;0;;-999999;21;20062;0;1;1308;21370;1;1;1;2;1;0;1;BlockProcFischi;BlockList;1;75;0;;-999999;32;34670;0;1;1771;36441;1;1;1;1;ProcFischi1;ListBlockFischi;52;1;2;1;0;3;Prmod_B;125;3;ug;3;2;31;1;52;3;1;TrialProc;908;1316;Prmod_B;345;1992;1648;ListFischi1;0;;2;203;401452;10;133;2227;403679;131;1;2019;1;689;506;1888;1;1
TMS_Ibrahim;50;2;"<?xml version=""1.0""?>\n<Clock xmlns:dt=""urn:schemas-microsoft-com:datatypes""><Description dt:dt=""string"">E-Prime Primary Realtime Clock</Description><StartTime><Timestamp dt:dt=""int"">0</Timestamp><DateUtc dt:dt=""string"">2023-03-30T09:09:48Z</DateUtc></StartTime><FrequencyChanges><FrequencyChange><Frequency dt:dt=""r8"">3312832</Frequency><Timestamp dt:dt=""r8"">32015054315</Timestamp><Current dt:dt=""r8"">0</Current><DateUtc dt:dt=""string"">2023-03-30T09:09:48Z</DateUtc></FrequencyChange></FrequencyChanges></Clock>\n";TMS_Ibrahim-50-2;75.028;1.0.0.561;1;;1950947595;2.0.10.242;2.0.10.242;03-30-2023;30/03/2023 09:09;11:09:48;2.0.10.147;0;;-999999;21;20062;0;1;1308;21370;1;1;1;2;1;0;1;BlockProcFischi;BlockList;1;75;0;;-999999;32;34670;0;1;1771;36441;1;1;1;1;ProcFischi1;ListBlockFischi;53;1;2;0;0;5;Pr2_B;125;1;op;5;2;11;1;53;1;0;TrialProc;897;720;Pr2_B;176;1429;1252;ListFischi1;0;;2;201;407981;12;15;1458;409439;386;1;1458;1;551;588;1072;1;1
TMS_Ibrahim;50;2;"<?xml version=""1.0""?>\n<Clock xmlns:dt=""urn:schemas-microsoft-com:datatypes""><Description dt:dt=""string"">E-Prime Primary Realtime Clock</Description><StartTime><Timestamp dt:dt=""int"">0</Timestamp><DateUtc dt:dt=""string"">2023-03-30T09:09:48Z</DateUtc></StartTime><FrequencyChanges><FrequencyChange><Frequency dt:dt=""r8"">3312832</Frequency><Timestamp dt:dt=""r8"">32015054315</Timestamp><Current dt:dt=""r8"">0</Current><DateUtc dt:dt=""string"">2023-03-30T09:09:48Z</DateUtc></FrequencyChange></FrequencyChanges></Clock>\n";TMS_Ibrahim-50-2;75.028;1.0.0.561;1;;1950947595;2.0.10.242;2.0.10.242;03-30-2023;30/03/2023 09:09;11:09:48;2.0.10.147;0;;-999999;21;20062;0;1;1308;21370;1;1;1;2;1;0;1;BlockProcFischi;BlockList;1;75;0;;-999999;32;34670;0;1;1771;36441;1;1;1;1;ProcFischi1;ListBlockFischi;54;1;2;1;1;5;Prmod_B;125;1;op;5;2;15;1;54;1;0;TrialProc;929;1318;Prmod_B;203;1854;1652;ListFischi1;0;;2;203;414965;12;15;1882;416847;650;1;1882;1;586;243;1232;1;1
TMS_Ibrahim;50;2;"<?xml version=""1.0""?>\n<Clock xmlns:dt=""urn:schemas-microsoft-com:datatypes""><Description dt:dt=""string"">E-Prime Primary Realtime Clock</Description><StartTime><Timestamp dt:dt=""int"">0</Timestamp><DateUtc dt:dt=""string"">2023-03-30T09:09:48Z</DateUtc></StartTime><FrequencyChanges><FrequencyChange><Frequency dt:dt=""r8"">3312832</Frequency><Timestamp dt:dt=""r8"">32015054315</Timestamp><Current dt:dt=""r8"">0</Current><DateUtc dt:dt=""string"">2023-03-30T09:09:48Z</DateUtc></FrequencyChange></FrequencyChanges></Clock>\n";TMS_Ibrahim-50-2;75.028;1.0.0.561;1;;1950947595;2.0.10.242;2.0.10.242;03-30-2023;30/03/2023 09:09;11:09:48;2.0.10.147;0;;-999999;21;20062;0;1;1308;21370;1;1;1;2;1;0;1;BlockProcFischi;BlockList;1;75;0;;-999999;32;34670;0;1;1771;36441;1;1;1;1;ProcFischi1;ListBlockFischi;55;1;2;0;2;5;Pr8_B;125;1;op;5;2;10;1;55;1;0;TrialProc;496;717;Pr8_B;98;1841;1743;ListFischi1;0;;3;201;422202;12;15;1877;424079;453;1;1877;1;283;302;1424;1;1
TMS_Ibrahim;50;2;"<?xml version=""1.0""?>\n<Clock xmlns:dt=""urn:schemas-microsoft-com:datatypes""><Description dt:dt=""string"">E-Prime Primary Realtime Clock</Description><StartTime><Timestamp dt:dt=""int"">0</Timestamp><DateUtc dt:dt=""string"">2023-03-30T09:09:48Z</DateUtc></StartTime><FrequencyChanges><FrequencyChange><Frequency dt:dt=""r8"">3312832</Frequency><Timestamp dt:dt=""r8"">32015054315</Timestamp><Current dt:dt=""r8"">0</Current><DateUtc dt:dt=""string"">2023-03-30T09:09:48Z</DateUtc></FrequencyChange></FrequencyChanges></Clock>\n";TMS_Ibrahim-50-2;75.028;1.0.0.561;1;;1950947595;2.0.10.242;2.0.10.242;03-30-2023;30/03/2023 09:09;11:09:48;2.0.10.147;0;;-999999;21;20062;0;1;1308;21370;1;1;1;2;1;0;1;BlockProcFischi;BlockList;1;75;0;;-999999;32;34670;0;1;1771;36441;1;1;1;1;ProcFischi1;ListBlockFischi;56;1;1;0;1;3;Po3_B;50;2;op;3;2;44;1;56;2;0;TrialProc;754;1319;Po3_B;4;1591;1586;ListFischi1;0;;2;203;429464;14;13;1622;431086;262;1;1622;1;130;469;1360;1;1
TMS_Ibrahim;50;2;"<?xml version=""1.0""?>\n<Clock xmlns:dt=""urn:schemas-microsoft-com:datatypes""><Description dt:dt=""string"">E-Prime Primary Realtime Clock</Description><StartTime><Timestamp dt:dt=""int"">0</Timestamp><DateUtc dt:dt=""string"">2023-03-30T09:09:48Z</DateUtc></StartTime><FrequencyChanges><FrequencyChange><Frequency dt:dt=""r8"">3312832</Frequency><Timestamp dt:dt=""r8"">32015054315</Timestamp><Current dt:dt=""r8"">0</Current><DateUtc dt:dt=""string"">2023-03-30T09:09:48Z</DateUtc></FrequencyChange></FrequencyChanges></Clock>\n";TMS_Ibrahim-50-2;75.028;1.0.0.561;1;;1950947595;2.0.10.242;2.0.10.242;03-30-2023;30/03/2023 09:09;11:09:48;2.0.10.147;0;;-999999;21;20062;0;1;1308;21370;1;1;1;2;1;0;1;BlockProcFischi;BlockList;1;75;0;;-999999;32;34670;0;1;1771;36441;1;1;1;1;ProcFischi1;ListBlockFischi;57;1;2;0;1;3;Pr3_B;125;3;ug;3;2;28;1;57;3;1;TrialProc;501;722;Pr3_B;112;1608;1721;ListFischi1;0;;2;201;436808;14;13;1638;438446;166;1;1638;1;785;467;1472;1;1
TMS_Ibrahim;50;2;"<?xml version=""1.0""?>\n<Clock xmlns:dt=""urn:schemas-microsoft-com:datatypes""><Description dt:dt=""string"">E-Prime Primary Realtime Clock</Description><StartTime><Timestamp dt:dt=""int"">0</Timestamp><DateUtc dt:dt=""string"">2023-03-30T09:09:48Z</DateUtc></StartTime><FrequencyChanges><FrequencyChange><Frequency dt:dt=""r8"">3312832</Frequency><Timestamp dt:dt=""r8"">32015054315</Timestamp><Current dt:dt=""r8"">0</Current><DateUtc dt:dt=""string"">2023-03-30T09:09:48Z</DateUtc></FrequencyChange></FrequencyChanges></Clock>\n";TMS_Ibrahim-50-2;75.028;1.0.0.561;1;;1950947595;2.0.10.242;2.0.10.242;03-30-2023;30/03/2023 09:09;11:09:48;2.0.10.147;0;;-999999;21;20062;0;1;1308;21370;1;1;1;2;1;0;1;BlockProcFischi;BlockList;1;75;0;;-999999;32;34670;0;1;1771;36441;1;1;1;1;ProcFischi1;ListBlockFischi;58;1;2;0;0;5;Pr3_B;100;1;op;5;2;7;1;58;1;0;TrialProc;636;714;Pr3_B;20;1693;1713;ListFischi1;0;;2;203;444317;9;155;2049;446366;241;1;1713;1;791;310;1472;1;1
TMS_Ibrahim;50;2;"<?xml version=""1.0""?>\n<Clock xmlns:dt=""urn:schemas-microsoft-com:datatypes""><Description dt:dt=""string"">E-Prime Primary Realtime Clock</Description><StartTime><Timestamp dt:dt=""int"">0</Timestamp><DateUtc dt:dt=""string"">2023-03-30T09:09:48Z</DateUtc></StartTime><FrequencyChanges><FrequencyChange><Frequency dt:dt=""r8"">3312832</Frequency><Timestamp dt:dt=""r8"">32015054315</Timestamp><Current dt:dt=""r8"">0</Current><DateUtc dt:dt=""string"">2023-03-30T09:09:48Z</DateUtc></FrequencyChange></FrequencyChanges></Clock>\n";TMS_Ibrahim-50-2;75.028;1.0.0.561;1;;1950947595;2.0.10.242;2.0.10.242;03-30-2023;30/03/2023 09:09;11:09:48;2.0.10.147;0;;-999999;21;20062;0;1;1308;21370;1;1;1;2;1;0;1;BlockProcFischi;BlockList;1;75;0;;-999999;32;34670;0;1;1771;36441;1;1;1;1;ProcFischi1;ListBlockFischi;59;1;2;1;1;3;Prmod_B;125;3;ug;3;2;32;1;59;3;1;TrialProc;583;1320;Prmod_B;477;2130;1653;ListFischi1;0;;2;203;452789;13;13;2153;454942;233;1;2153;1;782;284;1920;1;1
TMS_Ibrahim;50;2;"<?xml version=""1.0""?>\n<Clock xmlns:dt=""urn:schemas-microsoft-com:datatypes""><Description dt:dt=""string"">E-Prime Primary Realtime Clock</Description><StartTime><Timestamp dt:dt=""int"">0</Timestamp><DateUtc dt:dt=""string"">2023-03-30T09:09:48Z</DateUtc></StartTime><FrequencyChanges><FrequencyChange><Frequency dt:dt=""r8"">3312832</Frequency><Timestamp dt:dt=""r8"">32015054315</Timestamp><Current dt:dt=""r8"">0</Current><DateUtc dt:dt=""string"">2023-03-30T09:09:48Z</DateUtc></FrequencyChange></FrequencyChanges></Clock>\n";TMS_Ibrahim-50-2;75.028;1.0.0.561;1;;1950947595;2.0.10.242;2.0.10.242;03-30-2023;30/03/2023 09:09;11:09:48;2.0.10.147;0;;-999999;21;20062;0;1;1308;21370;1;1;1;2;1;0;1;BlockProcFischi;BlockList;1;75;0;;-999999;32;34670;0;1;1771;36441;1;1;1;1;ProcFischi1;ListBlockFischi;60;1;1;0;0;3;Po4_B;25;2;op;3;2;45;1;60;2;0;TrialProc;672;1349;Po4_B;75;1647;1722;ListFischi1;0;;2;201;459638;15;13;1672;461310;264;1;1672;1;921;567;1408;1;1
TMS_Ibrahim;50;2;"<?xml version=""1.0""?>\n<Clock xmlns:dt=""urn:schemas-microsoft-com:datatypes""><Description dt:dt=""string"">E-Prime Primary Realtime Clock</Description><StartTime><Timestamp dt:dt=""int"">0</Timestamp><DateUtc dt:dt=""string"">2023-03-30T09:09:48Z</DateUtc></StartTime><FrequencyChanges><FrequencyChange><Frequency dt:dt=""r8"">3312832</Frequency><Timestamp dt:dt=""r8"">32015054315</Timestamp><Current dt:dt=""r8"">0</Current><DateUtc dt:dt=""string"">2023-03-30T09:09:48Z</DateUtc></FrequencyChange></FrequencyChanges></Clock>\n";TMS_Ibrahim-50-2;75.028;1.0.0.561;1;;1950947595;2.0.10.242;2.0.10.242;03-30-2023;30/03/2023 09:09;11:09:48;2.0.10.147;0;;-999999;21;20062;0;1;1308;21370;1;1;1;2;1;0;1;BlockProcFischi;BlockList;1;75;0;;-999999;32;34670;0;1;1771;36441;1;1;1;1;ProcFischi1;ListBlockFischi;61;1;1;0;1;5;Po8_B;100;4;ug;5;2;58;1;61;4;1;TrialProc;503;1254;Po8_B;23;1563;1586;ListFischi1;0;;2;203;467557;13;155;2377;469934;153;1;1593;1;394;449;1440;1;1
TMS_Ibrahim;50;2;"<?xml version=""1.0""?>\n<Clock xmlns:dt=""urn:schemas-microsoft-com:datatypes""><Description dt:dt=""string"">E-Prime Primary Realtime Clock</Description><StartTime><Timestamp dt:dt=""int"">0</Timestamp><DateUtc dt:dt=""string"">2023-03-30T09:09:48Z</DateUtc></StartTime><FrequencyChanges><FrequencyChange><Frequency dt:dt=""r8"">3312832</Frequency><Timestamp dt:dt=""r8"">32015054315</Timestamp><Current dt:dt=""r8"">0</Current><DateUtc dt:dt=""string"">2023-03-30T09:09:48Z</DateUtc></FrequencyChange></FrequencyChanges></Clock>\n";TMS_Ibrahim-50-2;75.028;1.0.0.561;1;;1950947595;2.0.10.242;2.0.10.242;03-30-2023;30/03/2023 09:09;11:09:48;2.0.10.147;0;;-999999;21;20062;0;1;1308;21370;1;1;1;2;1;0;1;BlockProcFischi;BlockList;1;75;0;;-999999;32;34670;0;1;1771;36441;1;1;1;1;ProcFischi1;ListBlockFischi;62;1;1;1;1;3;Pomod_B;25;2;op;3;2;48;1;62;2;0;TrialProc;634;1320;Pomod_B;174;1853;1680;ListFischi1;0;;2;201;474301;13;133;2448;476749;209;1;1888;1;369;380;1679;1;1
TMS_Ibrahim;50;2;"<?xml version=""1.0""?>\n<Clock xmlns:dt=""urn:schemas-microsoft-com:datatypes""><Description dt:dt=""string"">E-Prime Primary Realtime Clock</Description><StartTime><Timestamp dt:dt=""int"">0</Timestamp><DateUtc dt:dt=""string"">2023-03-30T09:09:48Z</DateUtc></StartTime><FrequencyChanges><FrequencyChange><Frequency dt:dt=""r8"">3312832</Frequency><Timestamp dt:dt=""r8"">32015054315</Timestamp><Current dt:dt=""r8"">0</Current><DateUtc dt:dt=""string"">2023-03-30T09:09:48Z</DateUtc></FrequencyChange></FrequencyChanges></Clock>\n";TMS_Ibrahim-50-2;75.028;1.0.0.561;1;;1950947595;2.0.10.242;2.0.10.242;03-30-2023;30/03/2023 09:09;11:09:48;2.0.10.147;0;;-999999;21;20062;0;1;1308;21370;1;1;1;2;1;0;1;BlockProcFischi;BlockList;1;75;0;;-999999;32;34670;0;1;1771;36441;1;1;1;1;ProcFischi1;ListBlockFischi;63;1;1;0;2;3;Po8_B;25;2;op;3;2;37;1;63;2;0;TrialProc;571;1256;Po8_B;22;1611;1589;ListFischi1;0;;2;203;480790;15;133;2151;482941;423;1;1639;1;376;267;1216;1;1
TMS_Ibrahim;50;2;"<?xml version=""1.0""?>\n<Clock xmlns:dt=""urn:schemas-microsoft-com:datatypes""><Description dt:dt=""string"">E-Prime Primary Realtime Clock</Description><StartTime><Timestamp dt:dt=""int"">0</Timestamp><DateUtc dt:dt=""string"">2023-03-30T09:09:48Z</DateUtc></StartTime><FrequencyChanges><FrequencyChange><Frequency dt:dt=""r8"">3312832</Frequency><Timestamp dt:dt=""r8"">32015054315</Timestamp><Current dt:dt=""r8"">0</Current><DateUtc dt:dt=""string"">2023-03-30T09:09:48Z</DateUtc></FrequencyChange></FrequencyChanges></Clock>\n";TMS_Ibrahim-50-2;75.028;1.0.0.561;1;;1950947595;2.0.10.242;2.0.10.242;03-30-2023;30/03/2023 09:09;11:09:48;2.0.10.147;0;;-999999;21;20062;0;1;1308;21370;1;1;1;2;1;0;1;BlockProcFischi;BlockList;1;75;0;;-999999;32;34670;0;1;1771;36441;1;1;1;1;ProcFischi1;ListBlockFischi;64;1;2;1;0;5;Prmod_B;75;1;op;5;2;16;1;64;1;0;TrialProc;715;1325;Prmod_B;188;1846;1658;ListFischi1;0;;2;203;488810;19;15;1875;490685;227;1;1875;1;355;387;1648;1;1
TMS_Ibrahim;50;4;"<?xml version=""1.0""?>\n<Clock xmlns:dt=""urn:schemas-microsoft-com:datatypes""><Description dt:dt=""string"">E-Prime Primary Realtime Clock</Description><StartTime><Timestamp dt:dt=""int"">0</Timestamp><DateUtc dt:dt=""string"">2023-03-30T10:12:57Z</DateUtc></StartTime><FrequencyChanges><FrequencyChange><Frequency dt:dt=""r8"">3312832</Frequency><Timestamp dt:dt=""r8"">44567941674</Timestamp><Current dt:dt=""r8"">0</Current><DateUtc dt:dt=""string"">2023-03-30T10:12:57Z</DateUtc></FrequencyChange></FrequencyChanges></Clock>\n";TMS_Ibrahim-50-4;75.028;1.0.0.561;1;;1618917425;2.0.10.242;2.0.10.242;03-30-2023;30/03/2023 10:12;12:12:57;2.0.10.147;0;;-999999;22;18458;0;1;1349;19807;1;1;1;2;1;1;1;BlockProcFischi;BlockList;1;100;0;;-999999;13;21614;0;1;1287;22901;1;1;1;1;ProcFischi1;ListBlockFischi;1;1;2;0;0;3;Pr5_B;250;3;ug;3;2;30;1;1;3;1;TrialProc;2885;712;Pr5_B;250;1561;1310;ListFischi1;0;;5;210;26583;20;13;1599;28182;447;1;1599;1;825;358;1152;1;1
TMS_Ibrahim;50;4;"<?xml version=""1.0""?>\n<Clock xmlns:dt=""urn:schemas-microsoft-com:datatypes""><Description dt:dt=""string"">E-Prime Primary Realtime Clock</Description><StartTime><Timestamp dt:dt=""int"">0</Timestamp><DateUtc dt:dt=""string"">2023-03-30T10:12:57Z</DateUtc></StartTime><FrequencyChanges><FrequencyChange><Frequency dt:dt=""r8"">3312832</Frequency><Timestamp dt:dt=""r8"">44567941674</Timestamp><Current dt:dt=""r8"">0</Current><DateUtc dt:dt=""string"">2023-03-30T10:12:57Z</DateUtc></FrequencyChange></FrequencyChanges></Clock>\n";TMS_Ibrahim-50-4;75.028;1.0.0.561;1;;1618917425;2.0.10.242;2.0.10.242;03-30-2023;30/03/2023 10:12;12:12:57;2.0.10.147;0;;-999999;22;18458;0;1;1349;19807;1;1;1;2;1;1;1;BlockProcFischi;BlockList;1;100;0;;-999999;13;21614;0;1;1287;22901;1;1;1;1;ProcFischi1;ListBlockFischi;2;1;1;0;0;5;Po2_B;250;4;ug;5;2;59;1;2;4;1;TrialProc;3744;1588;Po2_B;263;1553;1815;ListFischi1;0;;1;201;34531;16;15;1586;36117;211;1;1586;1;644;323;1375;1;1
TMS_Ibrahim;50;4;"<?xml version=""1.0""?>\n<Clock xmlns:dt=""urn:schemas-microsoft-com:datatypes""><Description dt:dt=""string"">E-Prime Primary Realtime Clock</Description><StartTime><Timestamp dt:dt=""int"">0</Timestamp><DateUtc dt:dt=""string"">2023-03-30T10:12:57Z</DateUtc></StartTime><FrequencyChanges><FrequencyChange><Frequency dt:dt=""r8"">3312832</Frequency><Timestamp dt:dt=""r8"">44567941674</Timestamp><Current dt:dt=""r8"">0</Current><DateUtc dt:dt=""string"">2023-03-30T10:12:57Z</DateUtc></FrequencyChange></FrequencyChanges></Clock>\n";TMS_Ibrahim-50-4;75.028;1.0.0.561;1;;1618917425;2.0.10.242;2.0.10.242;03-30-2023;30/03/2023 10:12;12:12:57;2.0.10.147;0;;-999999;22;18458;0;1;1349;19807;1;1;1;2;1;1;1;BlockProcFischi;BlockList;1;100;0;;-999999;13;21614;0;1;1287;22901;1;1;1;1;ProcFischi1;ListBlockFischi;3;1;1;0;0;3;Po5_B;250;2;op;3;2;41;1;3;2;0;TrialProc;2033;990;Po5_B;4;1488;1483;ListFischi1;0;;2;203;42262;15;13;1519;43781;239;1;1519;1;283;362;1280;1;1
TMS_Ibrahim;50;4;"<?xml version=""1.0""?>\n<Clock xmlns:dt=""urn:schemas-microsoft-com:datatypes""><Description dt:dt=""string"">E-Prime Primary Realtime Clock</Description><StartTime><Timestamp dt:dt=""int"">0</Timestamp><DateUtc dt:dt=""string"">2023-03-30T10:12:57Z</DateUtc></StartTime><FrequencyChanges><FrequencyChange><Frequency dt:dt=""r8"">3312832</Frequency><Timestamp dt:dt=""r8"">44567941674</Timestamp><Current dt:dt=""r8"">0</Current><DateUtc dt:dt=""string"">2023-03-30T10:12:57Z</DateUtc></FrequencyChange></FrequencyChanges></Clock>\n";TMS_Ibrahim-50-4;75.028;1.0.0.561;1;;1618917425;2.0.10.242;2.0.10.242;03-30-2023;30/03/2023 10:12;12:12:57;2.0.10.147;0;;-999999;22;18458;0;1;1349;19807;1;1;1;2;1;1;1;BlockProcFischi;BlockList;1;100;0;;-999999;13;21614;0;1;1287;22901;1;1;1;1;ProcFischi1;ListBlockFischi;4;0;1;1;0;5;Pomod_B;;4;ug;3;2;63;1;4;4;1;TrialProc;1535;1321;Pomod_B;266;1415;1681;ListFischi1;0;;2;201;49381;14;135;2128;51509;384;1;1440;1;1050;221;1056;1;0
TMS_Ibrahim;50;4;"<?xml version=""1.0""?>\n<Clock xmlns:dt=""urn:schemas-microsoft-com:datatypes""><Description dt:dt=""string"">E-Prime Primary Realtime Clock</Description><StartTime><Timestamp dt:dt=""int"">0</Timestamp><DateUtc dt:dt=""string"">2023-03-30T10:12:57Z</DateUtc></StartTime><FrequencyChanges><FrequencyChange><Frequency dt:dt=""r8"">3312832</Frequency><Timestamp dt:dt=""r8"">44567941674</Timestamp><Current dt:dt=""r8"">0</Current><DateUtc dt:dt=""string"">2023-03-30T10:12:57Z</DateUtc></FrequencyChange></FrequencyChanges></Clock>\n";TMS_Ibrahim-50-4;75.028;1.0.0.561;1;;1618917425;2.0.10.242;2.0.10.242;03-30-2023;30/03/2023 10:12;12:12:57;2.0.10.147;0;;-999999;22;18458;0;1;1349;19807;1;1;1;2;1;1;1;BlockProcFischi;BlockList;1;100;0;;-999999;13;21614;0;1;1287;22901;1;1;1;1;ProcFischi1;ListBlockFischi;5;1;1;0;0;3;Po2_B;225;2;op;3;2;38;1;5;2;0;TrialProc;2404;1586;Po2_B;93;1721;1813;ListFischi1;0;;2;203;57139;13;13;1746;58885;114;1;1746;1;904;209;1632;1;1
TMS_Ibrahim;50;4;"<?xml version=""1.0""?>\n<Clock xmlns:dt=""urn:schemas-microsoft-com:datatypes""><Description dt:dt=""string"">E-Prime Primary Realtime Clock</Description><StartTime><Timestamp dt:dt=""int"">0</Timestamp><DateUtc dt:dt=""string"">2023-03-30T10:12:57Z</DateUtc></StartTime><FrequencyChanges><FrequencyChange><Frequency dt:dt=""r8"">3312832</Frequency><Timestamp dt:dt=""r8"">44567941674</Timestamp><Current dt:dt=""r8"">0</Current><DateUtc dt:dt=""string"">2023-03-30T10:12:57Z</DateUtc></FrequencyChange></FrequencyChanges></Clock>\n";TMS_Ibrahim-50-4;75.028;1.0.0.561;1;;1618917425;2.0.10.242;2.0.10.242;03-30-2023;30/03/2023 10:12;12:12:57;2.0.10.147;0;;-999999;22;18458;0;1;1349;19807;1;1;1;2;1;1;1;BlockProcFischi;BlockList;1;100;0;;-999999;13;21614;0;1;1287;22901;1;1;1;1;ProcFischi1;ListBlockFischi;6;0;1;0;0;3;Po5_B;;2;op;0;2;36;1;6;2;0;TrialProc;1790;985;Po5_B;300;1778;1478;ListFischi1;0;;2;201;65058;11;3;1811;66869;1;1;1;1;571;240;0;0;0
TMS_Ibrahim;50;4;"<?xml version=""1.0""?>\n<Clock xmlns:dt=""urn:schemas-microsoft-com:datatypes""><Description dt:dt=""string"">E-Prime Primary Realtime Clock</Description><StartTime><Timestamp dt:dt=""int"">0</Timestamp><DateUtc dt:dt=""string"">2023-03-30T10:12:57Z</DateUtc></StartTime><FrequencyChanges><FrequencyChange><Frequency dt:dt=""r8"">3312832</Frequency><Timestamp dt:dt=""r8"">44567941674</Timestamp><Current dt:dt=""r8"">0</Current><DateUtc dt:dt=""string"">2023-03-30T10:12:57Z</DateUtc></FrequencyChange></FrequencyChanges></Clock>\n";TMS_Ibrahim-50-4;75.028;1.0.0.561;1;;1618917425;2.0.10.242;2.0.10.242;03-30-2023;30/03/2023 10:12;12:12:57;2.0.10.147;0;;-999999;22;18458;0;1;1349;19807;1;1;1;2;1;1;1;BlockProcFischi;BlockList;1;100;0;;-999999;13;21614;0;1;1287;22901;1;1;1;1;ProcFischi1;ListBlockFischi;7;1;1;0;0;3;Po2_B;200;2;op;3;2;33;1;7;2;0;TrialProc;3307;1581;Po2_B;1;1805;1807;ListFischi1;0;;2;203;73484;8;133;2521;76005;889;1;1833;1;575;349;944;1;1
TMS_Ibrahim;50;4;"<?xml version=""1.0""?>\n<Clock xmlns:dt=""urn:schemas-microsoft-com:datatypes""><Description dt:dt=""string"">E-Prime Primary Realtime Clock</Description><StartTime><Timestamp dt:dt=""int"">0</Timestamp><DateUtc dt:dt=""string"">2023-03-30T10:12:57Z</DateUtc></StartTime><FrequencyChanges><FrequencyChange><Frequency dt:dt=""r8"">3312832</Frequency><Timestamp dt:dt=""r8"">44567941674</Timestamp><Current dt:dt=""r8"">0</Current><DateUtc dt:dt=""string"">2023-03-30T10:12:57Z</DateUtc></FrequencyChange></FrequencyChanges></Clock>\n";TMS_Ibrahim-50-4;75.028;1.0.0.561;1;;1618917425;2.0.10.242;2.0.10.242;03-30-2023;30/03/2023 10:12;12:12:57;2.0.10.147;0;;-999999;22;18458;0;1;1349;19807;1;1;1;2;1;1;1;BlockProcFischi;BlockList;1;100;0;;-999999;13;21614;0;1;1287;22901;1;1;1;1;ProcFischi1;ListBlockFischi;8;1;2;0;0;5;Pr4_B;250;1;op;5;2;8;1;8;1;0;TrialProc;2000;678;Pr4_B;408;1659;1251;ListFischi1;0;;2;203;81343;13;155;2390;83733;438;1;1686;1;832;317;1248;1;1
TMS_Ibrahim;50;4;"<?xml version=""1.0""?>\n<Clock xmlns:dt=""urn:schemas-microsoft-com:datatypes""><Description dt:dt=""string"">E-Prime Primary Realtime Clock</Description><StartTime><Timestamp dt:dt=""int"">0</Timestamp><DateUtc dt:dt=""string"">2023-03-30T10:12:57Z</DateUtc></StartTime><FrequencyChanges><FrequencyChange><Frequency dt:dt=""r8"">3312832</Frequency><Timestamp dt:dt=""r8"">44567941674</Timestamp><Current dt:dt=""r8"">0</Current><DateUtc dt:dt=""string"">2023-03-30T10:12:57Z</DateUtc></FrequencyChange></FrequencyChanges></Clock>\n";TMS_Ibrahim-50-4;75.028;1.0.0.561;1;;1618917425;2.0.10.242;2.0.10.242;03-30-2023;30/03/2023 10:12;12:12:57;2.0.10.147;0;;-999999;22;18458;0;1;1349;19807;1;1;1;2;1;1;1;BlockProcFischi;BlockList;1;100;0;;-999999;13;21614;0;1;1287;22901;1;1;1;1;ProcFischi1;ListBlockFischi;9;1;2;0;1;5;Pr3_B;250;1;op;5;2;2;1;9;1;0;TrialProc;1497;723;Pr3_B;12;1710;1723;ListFischi1;0;;2;201;88177;16;15;1731;89908;563;1;1731;1;636;383;1168;1;1
TMS_Ibrahim;50;4;"<?xml version=""1.0""?>\n<Clock xmlns:dt=""urn:schemas-microsoft-com:datatypes""><Description dt:dt=""string"">E-Prime Primary Realtime Clock</Description><StartTime><Timestamp dt:dt=""int"">0</Timestamp><DateUtc dt:dt=""string"">2023-03-30T10:12:57Z</DateUtc></StartTime><FrequencyChanges><FrequencyChange><Frequency dt:dt=""r8"">3312832</Frequency><Timestamp dt:dt=""r8"">44567941674</Timestamp><Current dt:dt=""r8"">0</Current><DateUtc dt:dt=""string"">2023-03-30T10:12:57Z</DateUtc></FrequencyChange></FrequencyChanges></Clock>\n";TMS_Ibrahim-50-4;75.028;1.0.0.561;1;;1618917425;2.0.10.242;2.0.10.242;03-30-2023;30/03/2023 10:12;12:12:57;2.0.10.147;0;;-999999;22;18458;0;1;1349;19807;1;1;1;2;1;1;1;BlockProcFischi;BlockList;1;100;0;;-999999;13;21614;0;1;1287;22901;1;1;1;1;ProcFischi1;ListBlockFischi;10;1;2;0;0;3;Pr4_B;250;3;ug;3;2;19;1;10;3;1;TrialProc;2372;677;Pr4_B;196;1447;1250;ListFischi1;0;;2;203;95515;9;13;1465;96980;314;1;1465;1;778;553;1151;1;1
TMS_Ibrahim;50;4;"<?xml version=""1.0""?>\n<Clock xmlns:dt=""urn:schemas-microsoft-com:datatypes""><Description dt:dt=""string"">E-Prime Primary Realtime Clock</Description><StartTime><Timestamp dt:dt=""int"">0</Timestamp><DateUtc dt:dt=""string"">2023-03-30T10:12:57Z</DateUtc></StartTime><FrequencyChanges><FrequencyChange><Frequency dt:dt=""r8"">3312832</Frequency><Timestamp dt:dt=""r8"">44567941674</Timestamp><Current dt:dt=""r8"">0</Current><DateUtc dt:dt=""string"">2023-03-30T10:12:57Z</DateUtc></FrequencyChange></FrequencyChanges></Clock>\n";TMS_Ibrahim-50-4;75.028;1.0.0.561;1;;1618917425;2.0.10.242;2.0.10.242;03-30-2023;30/03/2023 10:12;12:12:57;2.0.10.147;0;;-999999;22;18458;0;1;1349;19807;1;1;1;2;1;1;1;BlockProcFischi;BlockList;1;100;0;;-999999;13;21614;0;1;1287;22901;1;1;1;1;ProcFischi1;ListBlockFischi;11;1;2;0;0;3;Pr8_B;225;3;ug;3;2;21;1;11;3;1;TrialProc;1894;712;Pr8_B;119;1857;1739;ListFischi1;0;;2;203;103928;6;13;1884;105812;156;1;1884;1;543;314;1728;1;1
TMS_Ibrahim;50;4;"<?xml version=""1.0""?>\n<Clock xmlns:dt=""urn:schemas-microsoft-com:datatypes""><Description dt:dt=""string"">E-Prime Primary Realtime Clock</Description><StartTime><Timestamp dt:dt=""int"">0</Timestamp><DateUtc dt:dt=""string"">2023-03-30T10:12:57Z</DateUtc></StartTime><FrequencyChanges><FrequencyChange><Frequency dt:dt=""r8"">3312832</Frequency><Timestamp dt:dt=""r8"">44567941674</Timestamp><Current dt:dt=""r8"">0</Current><DateUtc dt:dt=""string"">2023-03-30T10:12:57Z</DateUtc></FrequencyChange></FrequencyChanges></Clock>\n";TMS_Ibrahim-50-4;75.028;1.0.0.561;1;;1618917425;2.0.10.242;2.0.10.242;03-30-2023;30/03/2023 10:12;12:12:57;2.0.10.147;0;;-999999;22;18458;0;1;1349;19807;1;1;1;2;1;1;1;BlockProcFischi;BlockList;1;100;0;;-999999;13;21614;0;1;1287;22901;1;1;1;1;ProcFischi1;ListBlockFischi;12;1;1;0;0;5;Po4_B;250;4;ug;5;2;61;1;12;4;1;TrialProc;1698;1348;Po4_B;123;1598;1721;ListFischi1;0;;2;203;112502;15;15;1630;114132;334;1;1630;1;623;548;1296;1;1
TMS_Ibrahim;50;4;"<?xml version=""1.0""?>\n<Clock xmlns:dt=""urn:schemas-microsoft-com:datatypes""><Description dt:dt=""string"">E-Prime Primary Realtime Clock</Description><StartTime><Timestamp dt:dt=""int"">0</Timestamp><DateUtc dt:dt=""string"">2023-03-30T10:12:57Z</DateUtc></StartTime><FrequencyChanges><FrequencyChange><Frequency dt:dt=""r8"">3312832</Frequency><Timestamp dt:dt=""r8"">44567941674</Timestamp><Current dt:dt=""r8"">0</Current><DateUtc dt:dt=""string"">2023-03-30T10:12:57Z</DateUtc></FrequencyChange></FrequencyChanges></Clock>\n";TMS_Ibrahim-50-4;75.028;1.0.0.561;1;;1618917425;2.0.10.242;2.0.10.242;03-30-2023;30/03/2023 10:12;12:12:57;2.0.10.147;0;;-999999;22;18458;0;1;1349;19807;1;1;1;2;1;1;1;BlockProcFischi;BlockList;1;100;0;;-999999;13;21614;0;1;1287;22901;1;1;1;1;ProcFischi1;ListBlockFischi;13;1;2;0;0;5;Pr2_B;225;1;op;5;2;6;1;13;1;0;TrialProc;2730;719;Pr2_B;184;1435;1252;ListFischi1;0;;2;203;120423;11;15;1469;121892;333;1;1469;1;846;364;1136;1;1
TMS_Ibrahim;50;4;"<?xml version=""1.0""?>\n<Clock xmlns:dt=""urn:schemas-microsoft-com:datatypes""><Description dt:dt=""string"">E-Prime Primary Realtime Clock</Description><StartTime><Timestamp dt:dt=""int"">0</Timestamp><DateUtc dt:dt=""string"">2023-03-30T10:12:57Z</DateUtc></StartTime><FrequencyChanges><FrequencyChange><Frequency dt:dt=""r8"">3312832</Frequency><Timestamp dt:dt=""r8"">44567941674</Timestamp><Current dt:dt=""r8"">0</Current><DateUtc dt:dt=""string"">2023-03-30T10:12:57Z</DateUtc></FrequencyChange></FrequencyChanges></Clock>\n";TMS_Ibrahim-50-4;75.028;1.0.0.561;1;;1618917425;2.0.10.242;2.0.10.242;03-30-2023;30/03/2023 10:12;12:12:57;2.0.10.147;0;;-999999;22;18458;0;1;1349;19807;1;1;1;2;1;1;1;BlockProcFischi;BlockList;1;100;0;;-999999;13;21614;0;1;1287;22901;1;1;1;1;ProcFischi1;ListBlockFischi;14;1;1;0;0;3;Po2_B;175;2;op;3;2;43;1;14;2;0;TrialProc;2368;1580;Po2_B;181;1627;1808;ListFischi1;0;;2;203;128649;9;13;1659;130308;603;1;1659;1;714;483;1056;1;1
TMS_Ibrahim;50;4;"<?xml version=""1.0""?>\n<Clock xmlns:dt=""urn:schemas-microsoft-com:datatypes""><Description dt:dt=""string"">E-Prime Primary Realtime Clock</Description><StartTime><Timestamp dt:dt=""int"">0</Timestamp><DateUtc dt:dt=""string"">2023-03-30T10:12:57Z</DateUtc></StartTime><FrequencyChanges><FrequencyChange><Frequency dt:dt=""r8"">3312832</Frequency><Timestamp dt:dt=""r8"">44567941674</Timestamp><Current dt:dt=""r8"">0</Current><DateUtc dt:dt=""string"">2023-03-30T10:12:57Z</DateUtc></FrequencyChange></FrequencyChanges></Clock>\n";TMS_Ibrahim-50-4;75.028;1.0.0.561;1;;1618917425;2.0.10.242;2.0.10.242;03-30-2023;30/03/2023 10:12;12:12:57;2.0.10.147;0;;-999999;22;18458;0;1;1349;19807;1;1;1;2;1;1;1;BlockProcFischi;BlockList;1;100;0;;-999999;13;21614;0;1;1287;22901;1;1;1;1;ProcFischi1;ListBlockFischi;15;1;2;1;0;3;Prmod_B;200;3;ug;3;2;31;1;15;3;1;TrialProc;3810;1318;Prmod_B;335;1985;1651;ListFischi1;0;;2;203;137870;11;13;2005;139875;405;1;2005;1;1184;486;1600;1;1
TMS_Ibrahim;50;4;"<?xml version=""1.0""?>\n<Clock xmlns:dt=""urn:schemas-microsoft-com:datatypes""><Description dt:dt=""string"">E-Prime Primary Realtime Clock</Description><StartTime><Timestamp dt:dt=""int"">0</Timestamp><DateUtc dt:dt=""string"">2023-03-30T10:12:57Z</DateUtc></StartTime><FrequencyChanges><FrequencyChange><Frequency dt:dt=""r8"">3312832</Frequency><Timestamp dt:dt=""r8"">44567941674</Timestamp><Current dt:dt=""r8"">0</Current><DateUtc dt:dt=""string"">2023-03-30T10:12:57Z</DateUtc></FrequencyChange></FrequencyChanges></Clock>\n";TMS_Ibrahim-50-4;75.028;1.0.0.561;1;;1618917425;2.0.10.242;2.0.10.242;03-30-2023;30/03/2023 10:12;12:12:57;2.0.10.147;0;;-999999;22;18458;0;1;1349;19807;1;1;1;2;1;1;1;BlockProcFischi;BlockList;1;100;0;;-999999;13;21614;0;1;1287;22901;1;1;1;1;ProcFischi1;ListBlockFischi;16;1;2;0;1;3;Pr5_B;200;3;ug;3;2;20;1;16;3;1;TrialProc;1807;678;Pr5_B;223;1499;1276;ListFischi1;0;;2;203;147108;10;13;1519;148627;143;1;1519;1;1163;453;1376;1;1
TMS_Ibrahim;50;4;"<?xml version=""1.0""?>\n<Clock xmlns:dt=""urn:schemas-microsoft-com:datatypes""><Description dt:dt=""string"">E-Prime Primary Realtime Clock</Description><StartTime><Timestamp dt:dt=""int"">0</Timestamp><DateUtc dt:dt=""string"">2023-03-30T10:12:57Z</DateUtc></StartTime><FrequencyChanges><FrequencyChange><Frequency dt:dt=""r8"">3312832</Frequency><Timestamp dt:dt=""r8"">44567941674</Timestamp><Current dt:dt=""r8"">0</Current><DateUtc dt:dt=""string"">2023-03-30T10:12:57Z</DateUtc></FrequencyChange></FrequencyChanges></Clock>\n";TMS_Ibrahim-50-4;75.028;1.0.0.561;1;;1618917425;2.0.10.242;2.0.10.242;03-30-2023;30/03/2023 10:12;12:12:57;2.0.10.147;0;;-999999;22;18458;0;1;1349;19807;1;1;1;2;1;1;1;BlockProcFischi;BlockList;1;100;0;;-999999;13;21614;0;1;1287;22901;1;1;1;1;ProcFischi1;ListBlockFischi;17;1;2;0;1;3;Pr8_B;200;3;ug;3;2;26;1;17;3;1;TrialProc;2144;716;Pr8_B;127;1869;1741;ListFischi1;0;;2;203;155346;9;13;1889;157235;369;1;1889;1;717;236;1520;1;1
TMS_Ibrahim;50;4;"<?xml version=""1.0""?>\n<Clock xmlns:dt=""urn:schemas-microsoft-com:datatypes""><Description dt:dt=""string"">E-Prime Primary Realtime Clock</Description><StartTime><Timestamp dt:dt=""int"">0</Timestamp><DateUtc dt:dt=""string"">2023-03-30T10:12:57Z</DateUtc></StartTime><FrequencyChanges><FrequencyChange><Frequency dt:dt=""r8"">3312832</Frequency><Timestamp dt:dt=""r8"">44567941674</Timestamp><Current dt:dt=""r8"">0</Current><DateUtc dt:dt=""string"">2023-03-30T10:12:57Z</DateUtc></FrequencyChange></FrequencyChanges></Clock>\n";TMS_Ibrahim-50-4;75.028;1.0.0.561;1;;1618917425;2.0.10.242;2.0.10.242;03-30-2023;30/03/2023 10:12;12:12:57;2.0.10.147;0;;-999999;22;18458;0;1;1349;19807;1;1;1;2;1;1;1;BlockProcFischi;BlockList;1;100;0;;-999999;13;21614;0;1;1287;22901;1;1;1;1;ProcFischi1;ListBlockFischi;18;1;1;0;0;5;Po3_B;225;4;ug;5;2;50;1;18;4;1;TrialProc;1438;1322;Po3_B;37;1553;1589;ListFischi1;0;;2;203;163415;17;15;1580;164995;220;1;1580;1;563;347;1360;1;1
TMS_Ibrahim;50;4;"<?xml version=""1.0""?>\n<Clock xmlns:dt=""urn:schemas-microsoft-com:datatypes""><Description dt:dt=""string"">E-Prime Primary Realtime Clock</Description><StartTime><Timestamp dt:dt=""int"">0</Timestamp><DateUtc dt:dt=""string"">2023-03-30T10:12:57Z</DateUtc></StartTime><FrequencyChanges><FrequencyChange><Frequency dt:dt=""r8"">3312832</Frequency><Timestamp dt:dt=""r8"">44567941674</Timestamp><Current dt:dt=""r8"">0</Current><DateUtc dt:dt=""string"">2023-03-30T10:12:57Z</DateUtc></FrequencyChange></FrequencyChanges></Clock>\n";TMS_Ibrahim-50-4;75.028;1.0.0.561;1;;1618917425;2.0.10.242;2.0.10.242;03-30-2023;30/03/2023 10:12;12:12:57;2.0.10.147;0;;-999999;22;18458;0;1;1349;19807;1;1;1;2;1;1;1;BlockProcFischi;BlockList;1;100;0;;-999999;13;21614;0;1;1287;22901;1;1;1;1;ProcFischi1;ListBlockFischi;19;1;1;0;0;5;Po4_B;200;4;ug;5;2;56;1;19;4;1;TrialProc;1099;1343;Po4_B;167;1550;1717;ListFischi1;0;;2;203;171350;12;155;1869;173219;173;1;1581;1;421;562;1408;1;1
TMS_Ibrahim;50;4;"<?xml version=""1.0""?>\n<Clock xmlns:dt=""urn:schemas-microsoft-com:datatypes""><Description dt:dt=""string"">E-Prime Primary Realtime Clock</Description><StartTime><Timestamp dt:dt=""int"">0</Timestamp><DateUtc dt:dt=""string"">2023-03-30T10:12:57Z</DateUtc></StartTime><FrequencyChanges><FrequencyChange><Frequency dt:dt=""r8"">3312832</Frequency><Timestamp dt:dt=""r8"">44567941674</Timestamp><Current dt:dt=""r8"">0</Current><DateUtc dt:dt=""string"">2023-03-30T10:12:57Z</DateUtc></FrequencyChange></FrequencyChanges></Clock>\n";TMS_Ibrahim-50-4;75.028;1.0.0.561;1;;1618917425;2.0.10.242;2.0.10.242;03-30-2023;30/03/2023 10:12;12:12:57;2.0.10.147;0;;-999999;22;18458;0;1;1349;19807;1;1;1;2;1;1;1;BlockProcFischi;BlockList;1;100;0;;-999999;13;21614;0;1;1287;22901;1;1;1;1;ProcFischi1;ListBlockFischi;20;1;2;0;0;5;Pr8_B;200;1;op;5;2;10;1;20;1;0;TrialProc;2836;717;Pr8_B;90;1831;1742;ListFischi1;0;;2;203;179189;10;15;1854;181043;62;1;1854;1;1158;206;1792;1;1
TMS_Ibrahim;50;4;"<?xml version=""1.0""?>\n<Clock xmlns:dt=""urn:schemas-microsoft-com:datatypes""><Description dt:dt=""string"">E-Prime Primary Realtime Clock</Description><StartTime><Timestamp dt:dt=""int"">0</Timestamp><DateUtc dt:dt=""string"">2023-03-30T10:12:57Z</DateUtc></StartTime><FrequencyChanges><FrequencyChange><Frequency dt:dt=""r8"">3312832</Frequency><Timestamp dt:dt=""r8"">44567941674</Timestamp><Current dt:dt=""r8"">0</Current><DateUtc dt:dt=""string"">2023-03-30T10:12:57Z</DateUtc></FrequencyChange></FrequencyChanges></Clock>\n";TMS_Ibrahim-50-4;75.028;1.0.0.561;1;;1618917425;2.0.10.242;2.0.10.242;03-30-2023;30/03/2023 10:12;12:12:57;2.0.10.147;0;;-999999;22;18458;0;1;1349;19807;1;1;1;2;1;1;1;BlockProcFischi;BlockList;1;100;0;;-999999;13;21614;0;1;1287;22901;1;1;1;1;ProcFischi1;ListBlockFischi;21;1;1;0;0;5;Po5_B;175;4;ug;5;2;52;1;21;4;1;TrialProc;2380;981;Po5_B;41;1515;1474;ListFischi1;0;;2;203;188147;9;15;1535;189682;415;1;1535;1;976;595;1120;1;1
TMS_Ibrahim;50;4;"<?xml version=""1.0""?>\n<Clock xmlns:dt=""urn:schemas-microsoft-com:datatypes""><Description dt:dt=""string"">E-Prime Primary Realtime Clock</Description><StartTime><Timestamp dt:dt=""int"">0</Timestamp><DateUtc dt:dt=""string"">2023-03-30T10:12:57Z</DateUtc></StartTime><FrequencyChanges><FrequencyChange><Frequency dt:dt=""r8"">3312832</Frequency><Timestamp dt:dt=""r8"">44567941674</Timestamp><Current dt:dt=""r8"">0</Current><DateUtc dt:dt=""string"">2023-03-30T10:12:57Z</DateUtc></FrequencyChange></FrequencyChanges></Clock>\n";TMS_Ibrahim-50-4;75.028;1.0.0.561;1;;1618917425;2.0.10.242;2.0.10.242;03-30-2023;30/03/2023 10:12;12:12:57;2.0.10.147;0;;-999999;22;18458;0;1;1349;19807;1;1;1;2;1;1;1;BlockProcFischi;BlockList;1;100;0;;-999999;13;21614;0;1;1287;22901;1;1;1;1;ProcFischi1;ListBlockFischi;22;1;1;0;0;3;Po4_B;175;2;op;3;2;45;1;22;2;0;TrialProc;3920;1342;Po4_B;207;1507;1715;ListFischi1;0;;2;203;197276;9;13;1542;198818;230;1;1542;1;567;577;1312;1;1
TMS_Ibrahim;50;4;"<?xml version=""1.0""?>\n<Clock xmlns:dt=""urn:schemas-microsoft-com:datatypes""><Description dt:dt=""string"">E-Prime Primary Realtime Clock</Description><StartTime><Timestamp dt:dt=""int"">0</Timestamp><DateUtc dt:dt=""string"">2023-03-30T10:12:57Z</DateUtc></StartTime><FrequencyChanges><FrequencyChange><Frequency dt:dt=""r8"">3312832</Frequency><Timestamp dt:dt=""r8"">44567941674</Timestamp><Current dt:dt=""r8"">0</Current><DateUtc dt:dt=""string"">2023-03-30T10:12:57Z</DateUtc></FrequencyChange></FrequencyChanges></Clock>\n";TMS_Ibrahim-50-4;75.028;1.0.0.561;1;;1618917425;2.0.10.242;2.0.10.242;03-30-2023;30/03/2023 10:12;12:12:57;2.0.10.147;0;;-999999;22;18458;0;1;1349;19807;1;1;1;2;1;1;1;BlockProcFischi;BlockList;1;100;0;;-999999;13;21614;0;1;1287;22901;1;1;1;1;ProcFischi1;ListBlockFischi;23;1;1;0;0;5;Po3_B;150;4;ug;5;2;55;1;23;4;1;TrialProc;1626;1314;Po3_B;40;1620;1580;ListFischi1;0;;2;203;205794;8;15;1648;207442;208;1;1648;1;917;389;1440;1;1
TMS_Ibrahim;50;4;"<?xml version=""1.0""?>\n<Clock xmlns:dt=""urn:schemas-microsoft-com:datatypes""><Description dt:dt=""string"">E-Prime Primary Realtime Clock</Description><StartTime><Timestamp dt:dt=""int"">0</Timestamp><DateUtc dt:dt=""string"">2023-03-30T10:12:57Z</DateUtc></StartTime><FrequencyChanges><FrequencyChange><Frequency dt:dt=""r8"">3312832</Frequency><Timestamp dt:dt=""r8"">44567941674</Timestamp><Current dt:dt=""r8"">0</Current><DateUtc dt:dt=""string"">2023-03-30T10:12:57Z</DateUtc></FrequencyChange></FrequencyChanges></Clock>\n";TMS_Ibrahim-50-4;75.028;1.0.0.561;1;;1618917425;2.0.10.242;2.0.10.242;03-30-2023;30/03/2023 10:12;12:12:57;2.0.10.147;0;;-999999;22;18458;0;1;1349;19807;1;1;1;2;1;1;1;BlockProcFischi;BlockList;1;100;0;;-999999;13;21614;0;1;1287;22901;1;1;1;1;ProcFischi1;ListBlockFischi;24;1;2;0;0;3;Pr3_B;175;3;ug;3;2;28;1;24;3;1;TrialProc;2598;719;Pr3_B;326;1393;1718;ListFischi1;0;;2;203;213640;13;13;1418;215058;218;1;1418;1;409;372;1200;1;1
TMS_Ibrahim;50;4;"<?xml version=""1.0""?>\n<Clock xmlns:dt=""urn:schemas-microsoft-com:datatypes""><Description dt:dt=""string"">E-Prime Primary Realtime Clock</Description><StartTime><Timestamp dt:dt=""int"">0</Timestamp><DateUtc dt:dt=""string"">2023-03-30T10:12:57Z</DateUtc></StartTime><FrequencyChanges><FrequencyChange><Frequency dt:dt=""r8"">3312832</Frequency><Timestamp dt:dt=""r8"">44567941674</Timestamp><Current dt:dt=""r8"">0</Current><DateUtc dt:dt=""string"">2023-03-30T10:12:57Z</DateUtc></FrequencyChange></FrequencyChanges></Clock>\n";TMS_Ibrahim-50-4;75.028;1.0.0.561;1;;1618917425;2.0.10.242;2.0.10.242;03-30-2023;30/03/2023 10:12;12:12:57;2.0.10.147;0;;-999999;22;18458;0;1;1349;19807;1;1;1;2;1;1;1;BlockProcFischi;BlockList;1;100;0;;-999999;13;21614;0;1;1287;22901;1;1;1;1;ProcFischi1;ListBlockFischi;25;1;2;0;0;5;Pr2_B;175;1;op;5;2;1;1;25;1;0;TrialProc;1744;716;Pr2_B;264;1514;1249;ListFischi1;0;;2;203;222306;10;15;1536;223842;114;1;1536;1;1076;303;1422;1;1
TMS_Ibrahim;50;4;"<?xml version=""1.0""?>\n<Clock xmlns:dt=""urn:schemas-microsoft-com:datatypes""><Description dt:dt=""string"">E-Prime Primary Realtime Clock</Description><StartTime><Timestamp dt:dt=""int"">0</Timestamp><DateUtc dt:dt=""string"">2023-03-30T10:12:57Z</DateUtc></StartTime><FrequencyChanges><FrequencyChange><Frequency dt:dt=""r8"">3312832</Frequency><Timestamp dt:dt=""r8"">44567941674</Timestamp><Current dt:dt=""r8"">0</Current><DateUtc dt:dt=""string"">2023-03-30T10:12:57Z</DateUtc></FrequencyChange></FrequencyChanges></Clock>\n";TMS_Ibrahim-50-4;75.028;1.0.0.561;1;;1618917425;2.0.10.242;2.0.10.242;03-30-2023;30/03/2023 10:12;12:12:57;2.0.10.147;0;;-999999;22;18458;0;1;1349;19807;1;1;1;2;1;1;1;BlockProcFischi;BlockList;1;100;0;;-999999;13;21614;0;1;1287;22901;1;1;1;1;ProcFischi1;ListBlockFischi;26;1;2;0;1;3;Pr4_B;175;3;ug;3;2;24;1;26;3;1;TrialProc;2268;673;Pr4_B;20;1266;1246;ListFischi1;0;;2;203;230625;8;13;1296;231921;161;1;1296;1;796;241;1135;1;1
TMS_Ibrahim;50;4;"<?xml version=""1.0""?>\n<Clock xmlns:dt=""urn:schemas-microsoft-com:datatypes""><Description dt:dt=""string"">E-Prime Primary Realtime Clock</Description><StartTime><Timestamp dt:dt=""int"">0</Timestamp><DateUtc dt:dt=""string"">2023-03-30T10:12:57Z</DateUtc></StartTime><FrequencyChanges><FrequencyChange><Frequency dt:dt=""r8"">3312832</Frequency><Timestamp dt:dt=""r8"">44567941674</Timestamp><Current dt:dt=""r8"">0</Current><DateUtc dt:dt=""string"">2023-03-30T10:12:57Z</DateUtc></FrequencyChange></FrequencyChanges></Clock>\n";TMS_Ibrahim-50-4;75.028;1.0.0.561;1;;1618917425;2.0.10.242;2.0.10.242;03-30-2023;30/03/2023 10:12;12:12:57;2.0.10.147;0;;-999999;22;18458;0;1;1349;19807;1;1;1;2;1;1;1;BlockProcFischi;BlockList;1;100;0;;-999999;13;21614;0;1;1287;22901;1;1;1;1;ProcFischi1;ListBlockFischi;27;1;2;0;0;3;Pr4_B;150;3;ug;3;2;29;1;27;3;1;TrialProc;2809;677;Pr4_B;271;1522;1251;ListFischi1;0;;2;203;239193;10;13;1544;240737;328;1;1544;1;1054;323;1216;1;1
TMS_Ibrahim;50;4;"<?xml version=""1.0""?>\n<Clock xmlns:dt=""urn:schemas-microsoft-com:datatypes""><Description dt:dt=""string"">E-Prime Primary Realtime Clock</Description><StartTime><Timestamp dt:dt=""int"">0</Timestamp><DateUtc dt:dt=""string"">2023-03-30T10:12:57Z</DateUtc></StartTime><FrequencyChanges><FrequencyChange><Frequency dt:dt=""r8"">3312832</Frequency><Timestamp dt:dt=""r8"">44567941674</Timestamp><Current dt:dt=""r8"">0</Current><DateUtc dt:dt=""string"">2023-03-30T10:12:57Z</DateUtc></FrequencyChange></FrequencyChanges></Clock>\n";TMS_Ibrahim-50-4;75.028;1.0.0.561;1;;1618917425;2.0.10.242;2.0.10.242;03-30-2023;30/03/2023 10:12;12:12:57;2.0.10.147;0;;-999999;22;18458;0;1;1349;19807;1;1;1;2;1;1;1;BlockProcFischi;BlockList;1;100;0;;-999999;13;21614;0;1;1287;22901;1;1;1;1;ProcFischi1;ListBlockFischi;28;1;2;0;1;5;Pr3_B;175;1;op;5;2;7;1;28;1;0;TrialProc;2751;714;Pr3_B;125;1841;1715;ListFischi1;0;;2;203;247565;8;15;1876;249441;436;1;1876;1;844;578;1440;1;1
TMS_Ibrahim;50;4;"<?xml version=""1.0""?>\n<Clock xmlns:dt=""urn:schemas-microsoft-com:datatypes""><Description dt:dt=""string"">E-Prime Primary Realtime Clock</Description><StartTime><Timestamp dt:dt=""int"">0</Timestamp><DateUtc dt:dt=""string"">2023-03-30T10:12:57Z</DateUtc></StartTime><FrequencyChanges><FrequencyChange><Frequency dt:dt=""r8"">3312832</Frequency><Timestamp dt:dt=""r8"">44567941674</Timestamp><Current dt:dt=""r8"">0</Current><DateUtc dt:dt=""string"">2023-03-30T10:12:57Z</DateUtc></FrequencyChange></FrequencyChanges></Clock>\n";TMS_Ibrahim-50-4;75.028;1.0.0.561;1;;1618917425;2.0.10.242;2.0.10.242;03-30-2023;30/03/2023 10:12;12:12:57;2.0.10.147;0;;-999999;22;18458;0;1;1349;19807;1;1;1;2;1;1;1;BlockProcFischi;BlockList;1;100;0;;-999999;13;21614;0;1;1287;22901;1;1;1;1;ProcFischi1;ListBlockFischi;29;1;2;0;1;3;Pr2_B;150;3;ug;3;2;22;1;29;3;1;TrialProc;3023;717;Pr2_B;63;1313;1250;ListFischi1;0;;2;203;256227;9;13;1342;257569;366;1;1342;1;655;501;976;1;1
TMS_Ibrahim;50;4;"<?xml version=""1.0""?>\n<Clock xmlns:dt=""urn:schemas-microsoft-com:datatypes""><Description dt:dt=""string"">E-Prime Primary Realtime Clock</Description><StartTime><Timestamp dt:dt=""int"">0</Timestamp><DateUtc dt:dt=""string"">2023-03-30T10:12:57Z</DateUtc></StartTime><FrequencyChanges><FrequencyChange><Frequency dt:dt=""r8"">3312832</Frequency><Timestamp dt:dt=""r8"">44567941674</Timestamp><Current dt:dt=""r8"">0</Current><DateUtc dt:dt=""string"">2023-03-30T10:12:57Z</DateUtc></FrequencyChange></FrequencyChanges></Clock>\n";TMS_Ibrahim-50-4;75.028;1.0.0.561;1;;1618917425;2.0.10.242;2.0.10.242;03-30-2023;30/03/2023 10:12;12:12:57;2.0.10.147;0;;-999999;22;18458;0;1;1349;19807;1;1;1;2;1;1;1;BlockProcFischi;BlockList;1;100;0;;-999999;13;21614;0;1;1287;22901;1;1;1;1;ProcFischi1;ListBlockFischi;30;1;2;1;0;5;Prmod_B;150;1;op;5;2;15;1;30;1;0;TrialProc;2390;1315;Prmod_B;164;1812;1648;ListFischi1;0;;2;203;264465;8;15;1840;266305;384;1;1840;1;701;308;1456;1;1
TMS_Ibrahim;50;4;"<?xml version=""1.0""?>\n<Clock xmlns:dt=""urn:schemas-microsoft-com:datatypes""><Description dt:dt=""string"">E-Prime Primary Realtime Clock</Description><StartTime><Timestamp dt:dt=""int"">0</Timestamp><DateUtc dt:dt=""string"">2023-03-30T10:12:57Z</DateUtc></StartTime><FrequencyChanges><FrequencyChange><Frequency dt:dt=""r8"">3312832</Frequency><Timestamp dt:dt=""r8"">44567941674</Timestamp><Current dt:dt=""r8"">0</Current><DateUtc dt:dt=""string"">2023-03-30T10:12:57Z</DateUtc></FrequencyChange></FrequencyChanges></Clock>\n";TMS_Ibrahim-50-4;75.028;1.0.0.561;1;;1618917425;2.0.10.242;2.0.10.242;03-30-2023;30/03/2023 10:12;12:12:57;2.0.10.147;0;;-999999;22;18458;0;1;1349;19807;1;1;1;2;1;1;1;BlockProcFischi;BlockList;1;100;0;;-999999;13;21614;0;1;1287;22901;1;1;1;1;ProcFischi1;ListBlockFischi;31;1;2;0;0;5;Pr8_B;150;1;op;5;2;5;1;31;1;0;TrialProc;1516;715;Pr8_B;56;1798;1741;ListFischi1;0;;2;203;272902;8;15;1819;274721;443;1;1819;1;1286;286;1376;1;1
TMS_Ibrahim;50;4;"<?xml version=""1.0""?>\n<Clock xmlns:dt=""urn:schemas-microsoft-com:datatypes""><Description dt:dt=""string"">E-Prime Primary Realtime Clock</Description><StartTime><Timestamp dt:dt=""int"">0</Timestamp><DateUtc dt:dt=""string"">2023-03-30T10:12:57Z</DateUtc></StartTime><FrequencyChanges><FrequencyChange><Frequency dt:dt=""r8"">3312832</Frequency><Timestamp dt:dt=""r8"">44567941674</Timestamp><Current dt:dt=""r8"">0</Current><DateUtc dt:dt=""string"">2023-03-30T10:12:57Z</DateUtc></FrequencyChange></FrequencyChanges></Clock>\n";TMS_Ibrahim-50-4;75.028;1.0.0.561;1;;1618917425;2.0.10.242;2.0.10.242;03-30-2023;30/03/2023 10:12;12:12:57;2.0.10.147;0;;-999999;22;18458;0;1;1349;19807;1;1;1;2;1;1;1;BlockProcFischi;BlockList;1;100;0;;-999999;13;21614;0;1;1287;22901;1;1;1;1;ProcFischi1;ListBlockFischi;32;1;2;0;0;3;Pr5_B;125;3;ug;3;2;25;1;32;3;1;TrialProc;1202;673;Pr5_B;99;1372;1273;ListFischi1;0;;2;203;280780;7;13;1396;282176;452;1;1396;1;963;261;944;1;1
TMS_Ibrahim;50;4;"<?xml version=""1.0""?>\n<Clock xmlns:dt=""urn:schemas-microsoft-com:datatypes""><Description dt:dt=""string"">E-Prime Primary Realtime Clock</Description><StartTime><Timestamp dt:dt=""int"">0</Timestamp><DateUtc dt:dt=""string"">2023-03-30T10:12:57Z</DateUtc></StartTime><FrequencyChanges><FrequencyChange><Frequency dt:dt=""r8"">3312832</Frequency><Timestamp dt:dt=""r8"">44567941674</Timestamp><Current dt:dt=""r8"">0</Current><DateUtc dt:dt=""string"">2023-03-30T10:12:57Z</DateUtc></FrequencyChange></FrequencyChanges></Clock>\n";TMS_Ibrahim-50-4;75.028;1.0.0.561;1;;1618917425;2.0.10.242;2.0.10.242;03-30-2023;30/03/2023 10:12;12:12:57;2.0.10.147;0;;-999999;22;18458;0;1;1349;19807;1;1;1;2;1;1;1;BlockProcFischi;BlockList;1;100;0;;-999999;13;21614;0;1;1287;22901;1;1;1;1;ProcFischi1;ListBlockFischi;33;1;1;0;0;5;Po2_B;125;4;ug;5;2;54;1;33;4;1;TrialProc;1487;1580;Po2_B;151;1655;1806;ListFischi1;0;;2;203;289204;7;15;1676;290880;204;1;1676;1;579;343;1472;1;1
TMS_Ibrahim;50;4;"<?xml version=""1.0""?>\n<Clock xmlns:dt=""urn:schemas-microsoft-com:datatypes""><Description dt:dt=""string"">E-Prime Primary Realtime Clock</Description><StartTime><Timestamp dt:dt=""int"">0</Timestamp><DateUtc dt:dt=""string"">2023-03-30T10:12:57Z</DateUtc></StartTime><FrequencyChanges><FrequencyChange><Frequency dt:dt=""r8"">3312832</Frequency><Timestamp dt:dt=""r8"">44567941674</Timestamp><Current dt:dt=""r8"">0</Current><DateUtc dt:dt=""string"">2023-03-30T10:12:57Z</DateUtc></FrequencyChange></FrequencyChanges></Clock>\n";TMS_Ibrahim-50-4;75.028;1.0.0.561;1;;1618917425;2.0.10.242;2.0.10.242;03-30-2023;30/03/2023 10:12;12:12:57;2.0.10.147;0;;-999999;22;18458;0;1;1349;19807;1;1;1;2;1;1;1;BlockProcFischi;BlockList;1;100;0;;-999999;13;21614;0;1;1287;22901;1;1;1;1;ProcFischi1;ListBlockFischi;34;1;1;0;1;3;Po8_B;175;2;op;3;2;37;1;34;2;0;TrialProc;613;1256;Po8_B;75;1514;1590;ListFischi1;0;;2;203;297405;16;13;1539;298944;325;1;1539;1;1143;464;1214;1;1
TMS_Ibrahim;50;4;"<?xml version=""1.0""?>\n<Clock xmlns:dt=""urn:schemas-microsoft-com:datatypes""><Description dt:dt=""string"">E-Prime Primary Realtime Clock</Description><StartTime><Timestamp dt:dt=""int"">0</Timestamp><DateUtc dt:dt=""string"">2023-03-30T10:12:57Z</DateUtc></StartTime><FrequencyChanges><FrequencyChange><Frequency dt:dt=""r8"">3312832</Frequency><Timestamp dt:dt=""r8"">44567941674</Timestamp><Current dt:dt=""r8"">0</Current><DateUtc dt:dt=""string"">2023-03-30T10:12:57Z</DateUtc></FrequencyChange></FrequencyChanges></Clock>\n";TMS_Ibrahim-50-4;75.028;1.0.0.561;1;;1618917425;2.0.10.242;2.0.10.242;03-30-2023;30/03/2023 10:12;12:12:57;2.0.10.147;0;;-999999;22;18458;0;1;1349;19807;1;1;1;2;1;1;1;BlockProcFischi;BlockList;1;100;0;;-999999;13;21614;0;1;1287;22901;1;1;1;1;ProcFischi1;ListBlockFischi;35;1;2;0;0;5;Pr3_B;125;1;op;5;2;12;1;35;1;0;TrialProc;2751;720;Pr3_B;52;1771;1719;ListFischi1;0;;2;203;305911;13;155;2521;308432;89;1;1801;1;425;538;1712;1;1
TMS_Ibrahim;50;4;"<?xml version=""1.0""?>\n<Clock xmlns:dt=""urn:schemas-microsoft-com:datatypes""><Description dt:dt=""string"">E-Prime Primary Realtime Clock</Description><StartTime><Timestamp dt:dt=""int"">0</Timestamp><DateUtc dt:dt=""string"">2023-03-30T10:12:57Z</DateUtc></StartTime><FrequencyChanges><FrequencyChange><Frequency dt:dt=""r8"">3312832</Frequency><Timestamp dt:dt=""r8"">44567941674</Timestamp><Current dt:dt=""r8"">0</Current><DateUtc dt:dt=""string"">2023-03-30T10:12:57Z</DateUtc></FrequencyChange></FrequencyChanges></Clock>\n";TMS_Ibrahim-50-4;75.028;1.0.0.561;1;;1618917425;2.0.10.242;2.0.10.242;03-30-2023;30/03/2023 10:12;12:12:57;2.0.10.147;0;;-999999;22;18458;0;1;1349;19807;1;1;1;2;1;1;1;BlockProcFischi;BlockList;1;100;0;;-999999;13;21614;0;1;1287;22901;1;1;1;1;ProcFischi1;ListBlockFischi;36;1;1;0;1;5;Po5_B;125;4;ug;5;2;62;1;36;4;1;TrialProc;2338;982;Po5_B;137;1613;1475;ListFischi1;0;;2;203;314285;10;15;1635;315920;723;1;1635;1;626;238;912;1;1
