ExperimentName;Subject;Session;Clock.Information;DataFile.Basename;Display.RefreshRate;ExperimentVersion;Group;Name;RandomSeed;RuntimeVersion;RuntimeVersionExpected;SessionDate;SessionStartDateTimeUtc;SessionTime;StudioVersion;SyncEprimeKinB1.ACC;SyncEprimeKinB1.CRESP;SyncEprimeKinB1.DurationError;SyncEprimeKinB1.OnsetDelay;SyncEprimeKinB1.OnsetTime;SyncEprimeKinB1.OnsetToOnsetTime;SyncEprimeKinB1.RESP;SyncEprimeKinB1.RT;SyncEprimeKinB1.RTTime;Block;BlockINT_0Fischi_1Suoni;BlockList;BlockList.Cycle;BlockList.Sample;ContatoreSuoni;NumSuono;Procedure[Block];Running[Block];Suonilist;SuonoFinSoglia;SyncEprimeKinFischi1.ACC;SyncEprimeKinFischi1.CRESP;SyncEprimeKinFischi1.DurationError;SyncEprimeKinFischi1.OnsetDelay;SyncEprimeKinFischi1.OnsetTime;SyncEprimeKinFischi1.OnsetToOnsetTime;SyncEprimeKinFischi1.RESP;SyncEprimeKinFischi1.RT;SyncEprimeKinFischi1.RTTime;Trial;ListBlockFischi;ListBlockFischi.Cycle;ListBlockFischi.Sample;Procedure[Trial];Running[Trial];SubTrial;AccSogg1;Avatar_Giu1_Su2;CatchTrial_CORR;ContatoreFinestraSoglia;CorrectResponse;File_Name;FinestraSoglia;IdcondEEG;Istruzione;KeySoggetto1;KeySoggetto2;ListFischi1;ListFischi1.Cycle;ListFischi1.Sample;NumeroSuono;OP_UG;Procedure[SubTrial];Resoconto.RT;RTChange;RTimage;RTNetto;RTSubj;RTTouch;Running[SubTrial];StartGo.ACC;StartGo.CRESP;StartGo.DurationError;StartGo.OnsetDelay;StartGo.OnsetTime;StartGo.OnsetToOnsetTime;StartGo.RESP;StartGo.RT;StartGo.RTTime;StartSoggetto1;StartSoggetto2;StopSoggetto1;StopSoggetto2;StopTrial.RT;tempo;TMSoggetto1;ValiditaTrial;Vincitore
TMS_Ibrahim;51;1;"<?xml version=""1.0""?>\n<Clock xmlns:dt=""urn:schemas-microsoft-com:datatypes""><Description dt:dt=""string"">E-Prime Primary Realtime Clock</Description><StartTime><Timestamp dt:dt=""int"">0</Timestamp><DateUtc dt:dt=""string"">2023-04-04T14:48:23Z</DateUtc></StartTime><FrequencyChanges><FrequencyChange><Frequency dt:dt=""r8"">3312890</Frequency><Timestamp dt:dt=""r8"">23079292456</Timestamp><Current dt:dt=""r8"">0</Current><DateUtc dt:dt=""string"">2023-04-04T14:48:23Z</DateUtc></FrequencyChange></FrequencyChanges></Clock>\n";TMS_Ibrahim-51-1;75.030;1.0.0.561;1;;1605101662;2.0.10.242;2.0.10.242;04/04/2023;04/04/2023 14:48;16:48:23;2.0.10.147;0;;-999999;44;88662;0;1;2240;90902;1;1;1;2;1;0;1;BlockProcFischi;BlockList;1;125;0;;-999999;32;91912;0;1;441;92353;1;1;1;1;ProcFischi1;ListBlockFischi;1;0;1;0;0;3;Po4_B;;2;op;1;2;45;1;1;2;0;TrialProc;971;1368;Po4_B;221;1503;1741;ListFischi1;0;;5;210;93881;25;15;2332;96213;667;1;1;1;515;496;-666;1;0
TMS_Ibrahim;51;1;"<?xml version=""1.0""?>\n<Clock xmlns:dt=""urn:schemas-microsoft-com:datatypes""><Description dt:dt=""string"">E-Prime Primary Realtime Clock</Description><StartTime><Timestamp dt:dt=""int"">0</Timestamp><DateUtc dt:dt=""string"">2023-04-04T14:48:23Z</DateUtc></StartTime><FrequencyChanges><FrequencyChange><Frequency dt:dt=""r8"">3312890</Frequency><Timestamp dt:dt=""r8"">23079292456</Timestamp><Current dt:dt=""r8"">0</Current><DateUtc dt:dt=""string"">2023-04-04T14:48:23Z</DateUtc></FrequencyChange></FrequencyChanges></Clock>\n";TMS_Ibrahim-51-1;75.030;1.0.0.561;1;;1605101662;2.0.10.242;2.0.10.242;04/04/2023;04/04/2023 14:48;16:48:23;2.0.10.147;0;;-999999;44;88662;0;1;2240;90902;1;1;1;2;1;0;1;BlockProcFischi;BlockList;1;125;0;;-999999;32;91912;0;1;441;92353;1;1;1;1;ProcFischi1;ListBlockFischi;2;1;1;0;0;5;Po5_B;250;4;ug;5;2;62;1;2;4;1;TrialProc;754;988;Po5_B;93;1388;1481;ListFischi1;0;;2;204;102620;16;15;1416;104036;344;1;1416;1;476;380;1072;1;1
TMS_Ibrahim;51;1;"<?xml version=""1.0""?>\n<Clock xmlns:dt=""urn:schemas-microsoft-com:datatypes""><Description dt:dt=""string"">E-Prime Primary Realtime Clock</Description><StartTime><Timestamp dt:dt=""int"">0</Timestamp><DateUtc dt:dt=""string"">2023-04-04T14:48:23Z</DateUtc></StartTime><FrequencyChanges><FrequencyChange><Frequency dt:dt=""r8"">3312890</Frequency><Timestamp dt:dt=""r8"">23079292456</Timestamp><Current dt:dt=""r8"">0</Current><DateUtc dt:dt=""string"">2023-04-04T14:48:23Z</DateUtc></FrequencyChange></FrequencyChanges></Clock>\n";TMS_Ibrahim-51-1;75.030;1.0.0.561;1;;1605101662;2.0.10.242;2.0.10.242;04/04/2023;04/04/2023 14:48;16:48:23;2.0.10.147;0;;-999999;44;88662;0;1;2240;90902;1;1;1;2;1;0;1;BlockProcFischi;BlockList;1;125;0;;-999999;32;91912;0;1;441;92353;1;1;1;1;ProcFischi1;ListBlockFischi;3;1;1;0;0;5;Po8_B;225;4;ug;5;2;58;1;3;4;1;TrialProc;555;1250;Po8_B;170;1414;1584;ListFischi1;0;;2;201;109889;10;15;1443;111332;147;1;1443;1;588;419;1296;1;1
TMS_Ibrahim;51;1;"<?xml version=""1.0""?>\n<Clock xmlns:dt=""urn:schemas-microsoft-com:datatypes""><Description dt:dt=""string"">E-Prime Primary Realtime Clock</Description><StartTime><Timestamp dt:dt=""int"">0</Timestamp><DateUtc dt:dt=""string"">2023-04-04T14:48:23Z</DateUtc></StartTime><FrequencyChanges><FrequencyChange><Frequency dt:dt=""r8"">3312890</Frequency><Timestamp dt:dt=""r8"">23079292456</Timestamp><Current dt:dt=""r8"">0</Current><DateUtc dt:dt=""string"">2023-04-04T14:48:23Z</DateUtc></FrequencyChange></FrequencyChanges></Clock>\n";TMS_Ibrahim-51-1;75.030;1.0.0.561;1;;1605101662;2.0.10.242;2.0.10.242;04/04/2023;04/04/2023 14:48;16:48:23;2.0.10.147;0;;-999999;44;88662;0;1;2240;90902;1;1;1;2;1;0;1;BlockProcFischi;BlockList;1;125;0;;-999999;32;91912;0;1;441;92353;1;1;1;1;ProcFischi1;ListBlockFischi;4;1;2;0;0;5;Pr3_B;250;1;op;5;2;2;1;4;1;0;TrialProc;499;714;Pr3_B;28;1687;1715;ListFischi1;0;;2;203;117328;8;155;1907;119235;292;1;1715;1;491;489;1423;1;1
TMS_Ibrahim;51;1;"<?xml version=""1.0""?>\n<Clock xmlns:dt=""urn:schemas-microsoft-com:datatypes""><Description dt:dt=""string"">E-Prime Primary Realtime Clock</Description><StartTime><Timestamp dt:dt=""int"">0</Timestamp><DateUtc dt:dt=""string"">2023-04-04T14:48:23Z</DateUtc></StartTime><FrequencyChanges><FrequencyChange><Frequency dt:dt=""r8"">3312890</Frequency><Timestamp dt:dt=""r8"">23079292456</Timestamp><Current dt:dt=""r8"">0</Current><DateUtc dt:dt=""string"">2023-04-04T14:48:23Z</DateUtc></FrequencyChange></FrequencyChanges></Clock>\n";TMS_Ibrahim-51-1;75.030;1.0.0.561;1;;1605101662;2.0.10.242;2.0.10.242;04/04/2023;04/04/2023 14:48;16:48:23;2.0.10.147;0;;-999999;44;88662;0;1;2240;90902;1;1;1;2;1;0;1;BlockProcFischi;BlockList;1;125;0;;-999999;32;91912;0;1;441;92353;1;1;1;1;ProcFischi1;ListBlockFischi;5;1;1;0;0;3;Po5_B;250;2;op;3;2;41;1;5;2;0;TrialProc;609;982;Po5_B;43;1434;1477;ListFischi1;0;;2;203;124564;10;13;1455;126019;175;1;1455;1;468;488;1280;1;1
TMS_Ibrahim;51;1;"<?xml version=""1.0""?>\n<Clock xmlns:dt=""urn:schemas-microsoft-com:datatypes""><Description dt:dt=""string"">E-Prime Primary Realtime Clock</Description><StartTime><Timestamp dt:dt=""int"">0</Timestamp><DateUtc dt:dt=""string"">2023-04-04T14:48:23Z</DateUtc></StartTime><FrequencyChanges><FrequencyChange><Frequency dt:dt=""r8"">3312890</Frequency><Timestamp dt:dt=""r8"">23079292456</Timestamp><Current dt:dt=""r8"">0</Current><DateUtc dt:dt=""string"">2023-04-04T14:48:23Z</DateUtc></FrequencyChange></FrequencyChanges></Clock>\n";TMS_Ibrahim-51-1;75.030;1.0.0.561;1;;1605101662;2.0.10.242;2.0.10.242;04/04/2023;04/04/2023 14:48;16:48:23;2.0.10.147;0;;-999999;44;88662;0;1;2240;90902;1;1;1;2;1;0;1;BlockProcFischi;BlockList;1;125;0;;-999999;32;91912;0;1;441;92353;1;1;1;1;ProcFischi1;ListBlockFischi;6;1;2;0;0;3;Pr4_B;250;3;ug;3;2;29;1;6;3;1;TrialProc;539;683;Pr4_B;267;1522;1256;ListFischi1;0;;2;201;132008;16;13;1547;133555;123;1;1547;1;441;418;1424;1;1
TMS_Ibrahim;51;1;"<?xml version=""1.0""?>\n<Clock xmlns:dt=""urn:schemas-microsoft-com:datatypes""><Description dt:dt=""string"">E-Prime Primary Realtime Clock</Description><StartTime><Timestamp dt:dt=""int"">0</Timestamp><DateUtc dt:dt=""string"">2023-04-04T14:48:23Z</DateUtc></StartTime><FrequencyChanges><FrequencyChange><Frequency dt:dt=""r8"">3312890</Frequency><Timestamp dt:dt=""r8"">23079292456</Timestamp><Current dt:dt=""r8"">0</Current><DateUtc dt:dt=""string"">2023-04-04T14:48:23Z</DateUtc></FrequencyChange></FrequencyChanges></Clock>\n";TMS_Ibrahim-51-1;75.030;1.0.0.561;1;;1605101662;2.0.10.242;2.0.10.242;04/04/2023;04/04/2023 14:48;16:48:23;2.0.10.147;0;;-999999;44;88662;0;1;2240;90902;1;1;1;2;1;0;1;BlockProcFischi;BlockList;1;125;0;;-999999;32;91912;0;1;441;92353;1;1;1;1;ProcFischi1;ListBlockFischi;7;1;2;0;0;5;Pr4_B;225;1;op;5;2;13;1;7;1;0;TrialProc;492;678;Pr4_B;69;1320;1251;ListFischi1;0;;2;203;139049;12;15;1354;140403;234;1;1354;1;914;276;1120;1;1
TMS_Ibrahim;51;1;"<?xml version=""1.0""?>\n<Clock xmlns:dt=""urn:schemas-microsoft-com:datatypes""><Description dt:dt=""string"">E-Prime Primary Realtime Clock</Description><StartTime><Timestamp dt:dt=""int"">0</Timestamp><DateUtc dt:dt=""string"">2023-04-04T14:48:23Z</DateUtc></StartTime><FrequencyChanges><FrequencyChange><Frequency dt:dt=""r8"">3312890</Frequency><Timestamp dt:dt=""r8"">23079292456</Timestamp><Current dt:dt=""r8"">0</Current><DateUtc dt:dt=""string"">2023-04-04T14:48:23Z</DateUtc></FrequencyChange></FrequencyChanges></Clock>\n";TMS_Ibrahim-51-1;75.030;1.0.0.561;1;;1605101662;2.0.10.242;2.0.10.242;04/04/2023;04/04/2023 14:48;16:48:23;2.0.10.147;0;;-999999;44;88662;0;1;2240;90902;1;1;1;2;1;0;1;BlockProcFischi;BlockList;1;125;0;;-999999;32;91912;0;1;441;92353;1;1;1;1;ProcFischi1;ListBlockFischi;8;1;1;0;0;5;Po4_B;200;4;ug;5;2;56;1;8;4;1;TrialProc;514;1348;Po4_B;99;1622;1722;ListFischi1;0;;2;201;146203;15;155;3239;149442;231;1;1655;1;1071;493;1424;1;1
TMS_Ibrahim;51;1;"<?xml version=""1.0""?>\n<Clock xmlns:dt=""urn:schemas-microsoft-com:datatypes""><Description dt:dt=""string"">E-Prime Primary Realtime Clock</Description><StartTime><Timestamp dt:dt=""int"">0</Timestamp><DateUtc dt:dt=""string"">2023-04-04T14:48:23Z</DateUtc></StartTime><FrequencyChanges><FrequencyChange><Frequency dt:dt=""r8"">3312890</Frequency><Timestamp dt:dt=""r8"">23079292456</Timestamp><Current dt:dt=""r8"">0</Current><DateUtc dt:dt=""string"">2023-04-04T14:48:23Z</DateUtc></FrequencyChange></FrequencyChanges></Clock>\n";TMS_Ibrahim-51-1;75.030;1.0.0.561;1;;1605101662;2.0.10.242;2.0.10.242;04/04/2023;04/04/2023 14:48;16:48:23;2.0.10.147;0;;-999999;44;88662;0;1;2240;90902;1;1;1;2;1;0;1;BlockProcFischi;BlockList;1;125;0;;-999999;32;91912;0;1;441;92353;1;1;1;1;ProcFischi1;ListBlockFischi;9;1;1;1;0;3;Pomod_B;225;2;op;3;2;48;1;9;2;0;TrialProc;456;6000;Pomod_B;191;6000;6000;ListFischi1;0;;2;203;152124;12;13;1894;154018;374;1;1894;1;360;245;1520;1;1
TMS_Ibrahim;51;1;"<?xml version=""1.0""?>\n<Clock xmlns:dt=""urn:schemas-microsoft-com:datatypes""><Description dt:dt=""string"">E-Prime Primary Realtime Clock</Description><StartTime><Timestamp dt:dt=""int"">0</Timestamp><DateUtc dt:dt=""string"">2023-04-04T14:48:23Z</DateUtc></StartTime><FrequencyChanges><FrequencyChange><Frequency dt:dt=""r8"">3312890</Frequency><Timestamp dt:dt=""r8"">23079292456</Timestamp><Current dt:dt=""r8"">0</Current><DateUtc dt:dt=""string"">2023-04-04T14:48:23Z</DateUtc></FrequencyChange></FrequencyChanges></Clock>\n";TMS_Ibrahim-51-1;75.030;1.0.0.561;1;;1605101662;2.0.10.242;2.0.10.242;04/04/2023;04/04/2023 14:48;16:48:23;2.0.10.147;0;;-999999;44;88662;0;1;2240;90902;1;1;1;2;1;0;1;BlockProcFischi;BlockList;1;125;0;;-999999;32;91912;0;1;441;92353;1;1;1;1;ProcFischi1;ListBlockFischi;10;1;1;0;0;5;Po4_B;175;4;ug;5;2;51;1;10;4;1;TrialProc;476;1344;Po4_B;218;1499;1717;ListFischi1;0;;2;201;158963;10;15;1519;160482;255;1;1519;1;446;346;1264;1;1
TMS_Ibrahim;51;1;"<?xml version=""1.0""?>\n<Clock xmlns:dt=""urn:schemas-microsoft-com:datatypes""><Description dt:dt=""string"">E-Prime Primary Realtime Clock</Description><StartTime><Timestamp dt:dt=""int"">0</Timestamp><DateUtc dt:dt=""string"">2023-04-04T14:48:23Z</DateUtc></StartTime><FrequencyChanges><FrequencyChange><Frequency dt:dt=""r8"">3312890</Frequency><Timestamp dt:dt=""r8"">23079292456</Timestamp><Current dt:dt=""r8"">0</Current><DateUtc dt:dt=""string"">2023-04-04T14:48:23Z</DateUtc></FrequencyChange></FrequencyChanges></Clock>\n";TMS_Ibrahim-51-1;75.030;1.0.0.561;1;;1605101662;2.0.10.242;2.0.10.242;04/04/2023;04/04/2023 14:48;16:48:23;2.0.10.147;0;;-999999;44;88662;0;1;2240;90902;1;1;1;2;1;0;1;BlockProcFischi;BlockList;1;125;0;;-999999;32;91912;0;1;441;92353;1;1;1;1;ProcFischi1;ListBlockFischi;11;0;2;0;0;5;Pr8_B;;1;op;1;2;10;1;11;1;0;TrialProc;564;720;Pr8_B;218;1499;1747;ListFischi1;0;;2;203;166437;13;15;2525;168962;397;1;1;1;174;422;-396;1;0
TMS_Ibrahim;51;1;"<?xml version=""1.0""?>\n<Clock xmlns:dt=""urn:schemas-microsoft-com:datatypes""><Description dt:dt=""string"">E-Prime Primary Realtime Clock</Description><StartTime><Timestamp dt:dt=""int"">0</Timestamp><DateUtc dt:dt=""string"">2023-04-04T14:48:23Z</DateUtc></StartTime><FrequencyChanges><FrequencyChange><Frequency dt:dt=""r8"">3312890</Frequency><Timestamp dt:dt=""r8"">23079292456</Timestamp><Current dt:dt=""r8"">0</Current><DateUtc dt:dt=""string"">2023-04-04T14:48:23Z</DateUtc></FrequencyChange></FrequencyChanges></Clock>\n";TMS_Ibrahim-51-1;75.030;1.0.0.561;1;;1605101662;2.0.10.242;2.0.10.242;04/04/2023;04/04/2023 14:48;16:48:23;2.0.10.147;0;;-999999;44;88662;0;1;2240;90902;1;1;1;2;1;0;1;BlockProcFischi;BlockList;1;125;0;;-999999;32;91912;0;1;441;92353;1;1;1;1;ProcFischi1;ListBlockFischi;12;1;1;0;1;5;Po2_B;175;4;ug;5;2;59;1;12;4;1;TrialProc;544;1589;Po2_B;237;1580;1817;ListFischi1;0;;2;201;173537;17;15;1600;175137;304;1;1600;1;921;591;1296;1;1
TMS_Ibrahim;51;1;"<?xml version=""1.0""?>\n<Clock xmlns:dt=""urn:schemas-microsoft-com:datatypes""><Description dt:dt=""string"">E-Prime Primary Realtime Clock</Description><StartTime><Timestamp dt:dt=""int"">0</Timestamp><DateUtc dt:dt=""string"">2023-04-04T14:48:23Z</DateUtc></StartTime><FrequencyChanges><FrequencyChange><Frequency dt:dt=""r8"">3312890</Frequency><Timestamp dt:dt=""r8"">23079292456</Timestamp><Current dt:dt=""r8"">0</Current><DateUtc dt:dt=""string"">2023-04-04T14:48:23Z</DateUtc></FrequencyChange></FrequencyChanges></Clock>\n";TMS_Ibrahim-51-1;75.030;1.0.0.561;1;;1605101662;2.0.10.242;2.0.10.242;04/04/2023;04/04/2023 14:48;16:48:23;2.0.10.147;0;;-999999;44;88662;0;1;2240;90902;1;1;1;2;1;0;1;BlockProcFischi;BlockList;1;125;0;;-999999;32;91912;0;1;441;92353;1;1;1;1;ProcFischi1;ListBlockFischi;13;1;1;0;2;5;Po3_B;175;4;ug;5;2;55;1;13;4;1;TrialProc;569;1320;Po3_B;106;1481;1587;ListFischi1;0;;2;203;181151;14;15;1506;182657;194;1;1506;1;435;327;1312;1;1
TMS_Ibrahim;51;1;"<?xml version=""1.0""?>\n<Clock xmlns:dt=""urn:schemas-microsoft-com:datatypes""><Description dt:dt=""string"">E-Prime Primary Realtime Clock</Description><StartTime><Timestamp dt:dt=""int"">0</Timestamp><DateUtc dt:dt=""string"">2023-04-04T14:48:23Z</DateUtc></StartTime><FrequencyChanges><FrequencyChange><Frequency dt:dt=""r8"">3312890</Frequency><Timestamp dt:dt=""r8"">23079292456</Timestamp><Current dt:dt=""r8"">0</Current><DateUtc dt:dt=""string"">2023-04-04T14:48:23Z</DateUtc></FrequencyChange></FrequencyChanges></Clock>\n";TMS_Ibrahim-51-1;75.030;1.0.0.561;1;;1605101662;2.0.10.242;2.0.10.242;04/04/2023;04/04/2023 14:48;16:48:23;2.0.10.147;0;;-999999;44;88662;0;1;2240;90902;1;1;1;2;1;0;1;BlockProcFischi;BlockList;1;125;0;;-999999;32;91912;0;1;441;92353;1;1;1;1;ProcFischi1;ListBlockFischi;14;1;1;0;0;3;Po2_B;200;2;op;3;2;38;1;14;2;0;TrialProc;662;1588;Po2_B;124;1939;1814;ListFischi1;0;;2;201;188401;14;13;1968;190369;96;1;1968;1;348;424;1872;1;1
TMS_Ibrahim;51;1;"<?xml version=""1.0""?>\n<Clock xmlns:dt=""urn:schemas-microsoft-com:datatypes""><Description dt:dt=""string"">E-Prime Primary Realtime Clock</Description><StartTime><Timestamp dt:dt=""int"">0</Timestamp><DateUtc dt:dt=""string"">2023-04-04T14:48:23Z</DateUtc></StartTime><FrequencyChanges><FrequencyChange><Frequency dt:dt=""r8"">3312890</Frequency><Timestamp dt:dt=""r8"">23079292456</Timestamp><Current dt:dt=""r8"">0</Current><DateUtc dt:dt=""string"">2023-04-04T14:48:23Z</DateUtc></FrequencyChange></FrequencyChanges></Clock>\n";TMS_Ibrahim-51-1;75.030;1.0.0.561;1;;1605101662;2.0.10.242;2.0.10.242;04/04/2023;04/04/2023 14:48;16:48:23;2.0.10.147;0;;-999999;44;88662;0;1;2240;90902;1;1;1;2;1;0;1;BlockProcFischi;BlockList;1;125;0;;-999999;32;91912;0;1;441;92353;1;1;1;1;ProcFischi1;ListBlockFischi;15;1;2;0;0;5;Pr2_B;200;1;op;5;2;11;1;15;1;0;TrialProc;562;720;Pr2_B;129;1382;1252;ListFischi1;0;;2;203;195346;13;15;1407;196753;255;1;1407;1;358;464;1152;1;1
TMS_Ibrahim;51;1;"<?xml version=""1.0""?>\n<Clock xmlns:dt=""urn:schemas-microsoft-com:datatypes""><Description dt:dt=""string"">E-Prime Primary Realtime Clock</Description><StartTime><Timestamp dt:dt=""int"">0</Timestamp><DateUtc dt:dt=""string"">2023-04-04T14:48:23Z</DateUtc></StartTime><FrequencyChanges><FrequencyChange><Frequency dt:dt=""r8"">3312890</Frequency><Timestamp dt:dt=""r8"">23079292456</Timestamp><Current dt:dt=""r8"">0</Current><DateUtc dt:dt=""string"">2023-04-04T14:48:23Z</DateUtc></FrequencyChange></FrequencyChanges></Clock>\n";TMS_Ibrahim-51-1;75.030;1.0.0.561;1;;1605101662;2.0.10.242;2.0.10.242;04/04/2023;04/04/2023 14:48;16:48:23;2.0.10.147;0;;-999999;44;88662;0;1;2240;90902;1;1;1;2;1;0;1;BlockProcFischi;BlockList;1;125;0;;-999999;32;91912;0;1;441;92353;1;1;1;1;ProcFischi1;ListBlockFischi;16;1;2;1;0;3;Prmod_B;250;3;ug;3;2;32;1;16;3;1;TrialProc;628;1321;Prmod_B;307;1961;1654;ListFischi1;0;;2;201;202301;15;13;1987;204288;291;1;1987;1;358;470;1696;1;1
TMS_Ibrahim;51;1;"<?xml version=""1.0""?>\n<Clock xmlns:dt=""urn:schemas-microsoft-com:datatypes""><Description dt:dt=""string"">E-Prime Primary Realtime Clock</Description><StartTime><Timestamp dt:dt=""int"">0</Timestamp><DateUtc dt:dt=""string"">2023-04-04T14:48:23Z</DateUtc></StartTime><FrequencyChanges><FrequencyChange><Frequency dt:dt=""r8"">3312890</Frequency><Timestamp dt:dt=""r8"">23079292456</Timestamp><Current dt:dt=""r8"">0</Current><DateUtc dt:dt=""string"">2023-04-04T14:48:23Z</DateUtc></FrequencyChange></FrequencyChanges></Clock>\n";TMS_Ibrahim-51-1;75.030;1.0.0.561;1;;1605101662;2.0.10.242;2.0.10.242;04/04/2023;04/04/2023 14:48;16:48:23;2.0.10.147;0;;-999999;44;88662;0;1;2240;90902;1;1;1;2;1;0;1;BlockProcFischi;BlockList;1;125;0;;-999999;32;91912;0;1;441;92353;1;1;1;1;ProcFischi1;ListBlockFischi;17;1;1;0;0;3;Po2_B;175;2;op;3;2;43;1;17;2;0;TrialProc;603;1584;Po2_B;55;1756;1811;ListFischi1;0;;2;203;209276;11;1331;3940;213216;276;1;1780;1;481;298;1504;1;1
TMS_Ibrahim;51;1;"<?xml version=""1.0""?>\n<Clock xmlns:dt=""urn:schemas-microsoft-com:datatypes""><Description dt:dt=""string"">E-Prime Primary Realtime Clock</Description><StartTime><Timestamp dt:dt=""int"">0</Timestamp><DateUtc dt:dt=""string"">2023-04-04T14:48:23Z</DateUtc></StartTime><FrequencyChanges><FrequencyChange><Frequency dt:dt=""r8"">3312890</Frequency><Timestamp dt:dt=""r8"">23079292456</Timestamp><Current dt:dt=""r8"">0</Current><DateUtc dt:dt=""string"">2023-04-04T14:48:23Z</DateUtc></FrequencyChange></FrequencyChanges></Clock>\n";TMS_Ibrahim-51-1;75.030;1.0.0.561;1;;1605101662;2.0.10.242;2.0.10.242;04/04/2023;04/04/2023 14:48;16:48:23;2.0.10.147;0;;-999999;44;88662;0;1;2240;90902;1;1;1;2;1;0;1;BlockProcFischi;BlockList;1;125;0;;-999999;32;91912;0;1;441;92353;1;1;1;1;ProcFischi1;ListBlockFischi;18;1;2;1;0;5;Prmod_B;175;1;op;5;2;16;1;18;1;0;TrialProc;592;1320;Prmod_B;137;1791;1654;ListFischi1;0;;2;201;215843;15;15;1821;217664;285;1;1821;1;272;328;1536;1;1
TMS_Ibrahim;51;1;"<?xml version=""1.0""?>\n<Clock xmlns:dt=""urn:schemas-microsoft-com:datatypes""><Description dt:dt=""string"">E-Prime Primary Realtime Clock</Description><StartTime><Timestamp dt:dt=""int"">0</Timestamp><DateUtc dt:dt=""string"">2023-04-04T14:48:23Z</DateUtc></StartTime><FrequencyChanges><FrequencyChange><Frequency dt:dt=""r8"">3312890</Frequency><Timestamp dt:dt=""r8"">23079292456</Timestamp><Current dt:dt=""r8"">0</Current><DateUtc dt:dt=""string"">2023-04-04T14:48:23Z</DateUtc></FrequencyChange></FrequencyChanges></Clock>\n";TMS_Ibrahim-51-1;75.030;1.0.0.561;1;;1605101662;2.0.10.242;2.0.10.242;04/04/2023;04/04/2023 14:48;16:48:23;2.0.10.147;0;;-999999;44;88662;0;1;2240;90902;1;1;1;2;1;0;1;BlockProcFischi;BlockList;1;125;0;;-999999;32;91912;0;1;441;92353;1;1;1;1;ProcFischi1;ListBlockFischi;19;1;2;0;1;3;Pr2_B;250;3;ug;3;2;17;1;19;3;1;TrialProc;701;720;Pr2_B;108;1359;1252;ListFischi1;0;;3;203;222802;13;13;1390;224192;334;1;1390;1;612;555;1056;1;1
TMS_Ibrahim;51;1;"<?xml version=""1.0""?>\n<Clock xmlns:dt=""urn:schemas-microsoft-com:datatypes""><Description dt:dt=""string"">E-Prime Primary Realtime Clock</Description><StartTime><Timestamp dt:dt=""int"">0</Timestamp><DateUtc dt:dt=""string"">2023-04-04T14:48:23Z</DateUtc></StartTime><FrequencyChanges><FrequencyChange><Frequency dt:dt=""r8"">3312890</Frequency><Timestamp dt:dt=""r8"">23079292456</Timestamp><Current dt:dt=""r8"">0</Current><DateUtc dt:dt=""string"">2023-04-04T14:48:23Z</DateUtc></FrequencyChange></FrequencyChanges></Clock>\n";TMS_Ibrahim-51-1;75.030;1.0.0.561;1;;1605101662;2.0.10.242;2.0.10.242;04/04/2023;04/04/2023 14:48;16:48:23;2.0.10.147;0;;-999999;44;88662;0;1;2240;90902;1;1;1;2;1;0;1;BlockProcFischi;BlockList;1;125;0;;-999999;32;91912;0;1;441;92353;1;1;1;1;ProcFischi1;ListBlockFischi;20;1;1;0;0;3;Po8_B;150;2;op;3;2;37;1;20;2;0;TrialProc;638;1249;Po8_B;151;1431;1583;ListFischi1;0;;2;201;229789;10;13;1458;231247;178;1;1458;1;511;295;1280;1;1
TMS_Ibrahim;51;1;"<?xml version=""1.0""?>\n<Clock xmlns:dt=""urn:schemas-microsoft-com:datatypes""><Description dt:dt=""string"">E-Prime Primary Realtime Clock</Description><StartTime><Timestamp dt:dt=""int"">0</Timestamp><DateUtc dt:dt=""string"">2023-04-04T14:48:23Z</DateUtc></StartTime><FrequencyChanges><FrequencyChange><Frequency dt:dt=""r8"">3312890</Frequency><Timestamp dt:dt=""r8"">23079292456</Timestamp><Current dt:dt=""r8"">0</Current><DateUtc dt:dt=""string"">2023-04-04T14:48:23Z</DateUtc></FrequencyChange></FrequencyChanges></Clock>\n";TMS_Ibrahim-51-1;75.030;1.0.0.561;1;;1605101662;2.0.10.242;2.0.10.242;04/04/2023;04/04/2023 14:48;16:48:23;2.0.10.147;0;;-999999;44;88662;0;1;2240;90902;1;1;1;2;1;0;1;BlockProcFischi;BlockList;1;125;0;;-999999;32;91912;0;1;441;92353;1;1;1;1;ProcFischi1;ListBlockFischi;21;1;1;1;0;3;Pomod_B;150;2;op;3;2;47;1;21;2;0;TrialProc;788;1311;Pomod_B;31;1702;1671;ListFischi1;0;;2;203;237284;5;13;1723;239007;139;1;1723;1;514;385;1584;1;1
TMS_Ibrahim;51;1;"<?xml version=""1.0""?>\n<Clock xmlns:dt=""urn:schemas-microsoft-com:datatypes""><Description dt:dt=""string"">E-Prime Primary Realtime Clock</Description><StartTime><Timestamp dt:dt=""int"">0</Timestamp><DateUtc dt:dt=""string"">2023-04-04T14:48:23Z</DateUtc></StartTime><FrequencyChanges><FrequencyChange><Frequency dt:dt=""r8"">3312890</Frequency><Timestamp dt:dt=""r8"">23079292456</Timestamp><Current dt:dt=""r8"">0</Current><DateUtc dt:dt=""string"">2023-04-04T14:48:23Z</DateUtc></FrequencyChange></FrequencyChanges></Clock>\n";TMS_Ibrahim-51-1;75.030;1.0.0.561;1;;1605101662;2.0.10.242;2.0.10.242;04/04/2023;04/04/2023 14:48;16:48:23;2.0.10.147;0;;-999999;44;88662;0;1;2240;90902;1;1;1;2;1;0;1;BlockProcFischi;BlockList;1;125;0;;-999999;32;91912;0;1;441;92353;1;1;1;1;ProcFischi1;ListBlockFischi;22;1;1;0;0;5;Po4_B;150;4;ug;5;2;61;1;22;4;1;TrialProc;583;1344;Po4_B;213;1505;1718;ListFischi1;0;;2;201;244462;11;15;1537;245999;481;1;1537;1;283;546;1056;1;1
TMS_Ibrahim;51;1;"<?xml version=""1.0""?>\n<Clock xmlns:dt=""urn:schemas-microsoft-com:datatypes""><Description dt:dt=""string"">E-Prime Primary Realtime Clock</Description><StartTime><Timestamp dt:dt=""int"">0</Timestamp><DateUtc dt:dt=""string"">2023-04-04T14:48:23Z</DateUtc></StartTime><FrequencyChanges><FrequencyChange><Frequency dt:dt=""r8"">3312890</Frequency><Timestamp dt:dt=""r8"">23079292456</Timestamp><Current dt:dt=""r8"">0</Current><DateUtc dt:dt=""string"">2023-04-04T14:48:23Z</DateUtc></FrequencyChange></FrequencyChanges></Clock>\n";TMS_Ibrahim-51-1;75.030;1.0.0.561;1;;1605101662;2.0.10.242;2.0.10.242;04/04/2023;04/04/2023 14:48;16:48:23;2.0.10.147;0;;-999999;44;88662;0;1;2240;90902;1;1;1;2;1;0;1;BlockProcFischi;BlockList;1;125;0;;-999999;32;91912;0;1;441;92353;1;1;1;1;ProcFischi1;ListBlockFischi;23;1;1;0;1;5;Po2_B;150;4;ug;5;2;54;1;23;4;1;TrialProc;600;1586;Po2_B;92;1720;1812;ListFischi1;0;;2;203;251817;13;15;1749;253566;261;1;1749;1;187;425;1488;1;1
TMS_Ibrahim;51;1;"<?xml version=""1.0""?>\n<Clock xmlns:dt=""urn:schemas-microsoft-com:datatypes""><Description dt:dt=""string"">E-Prime Primary Realtime Clock</Description><StartTime><Timestamp dt:dt=""int"">0</Timestamp><DateUtc dt:dt=""string"">2023-04-04T14:48:23Z</DateUtc></StartTime><FrequencyChanges><FrequencyChange><Frequency dt:dt=""r8"">3312890</Frequency><Timestamp dt:dt=""r8"">23079292456</Timestamp><Current dt:dt=""r8"">0</Current><DateUtc dt:dt=""string"">2023-04-04T14:48:23Z</DateUtc></FrequencyChange></FrequencyChanges></Clock>\n";TMS_Ibrahim-51-1;75.030;1.0.0.561;1;;1605101662;2.0.10.242;2.0.10.242;04/04/2023;04/04/2023 14:48;16:48:23;2.0.10.147;0;;-999999;44;88662;0;1;2240;90902;1;1;1;2;1;0;1;BlockProcFischi;BlockList;1;125;0;;-999999;32;91912;0;1;441;92353;1;1;1;1;ProcFischi1;ListBlockFischi;24;1;1;0;0;5;Po5_B;125;4;ug;5;2;57;1;24;4;1;TrialProc;473;984;Po5_B;109;1587;1478;ListFischi1;0;;2;201;259003;11;155;1747;260750;311;1;1619;1;589;220;1308;1;1
TMS_Ibrahim;51;1;"<?xml version=""1.0""?>\n<Clock xmlns:dt=""urn:schemas-microsoft-com:datatypes""><Description dt:dt=""string"">E-Prime Primary Realtime Clock</Description><StartTime><Timestamp dt:dt=""int"">0</Timestamp><DateUtc dt:dt=""string"">2023-04-04T14:48:23Z</DateUtc></StartTime><FrequencyChanges><FrequencyChange><Frequency dt:dt=""r8"">3312890</Frequency><Timestamp dt:dt=""r8"">23079292456</Timestamp><Current dt:dt=""r8"">0</Current><DateUtc dt:dt=""string"">2023-04-04T14:48:23Z</DateUtc></FrequencyChange></FrequencyChanges></Clock>\n";TMS_Ibrahim-51-1;75.030;1.0.0.561;1;;1605101662;2.0.10.242;2.0.10.242;04/04/2023;04/04/2023 14:48;16:48:23;2.0.10.147;0;;-999999;44;88662;0;1;2240;90902;1;1;1;2;1;0;1;BlockProcFischi;BlockList;1;125;0;;-999999;32;91912;0;1;441;92353;1;1;1;1;ProcFischi1;ListBlockFischi;25;1;2;0;0;5;Pr8_B;150;1;op;5;2;5;1;25;1;0;TrialProc;525;725;Pr8_B;68;1683;1750;ListFischi1;0;;2;203;266113;18;155;2077;268190;285;1;1709;1;439;284;1424;1;1
TMS_Ibrahim;51;1;"<?xml version=""1.0""?>\n<Clock xmlns:dt=""urn:schemas-microsoft-com:datatypes""><Description dt:dt=""string"">E-Prime Primary Realtime Clock</Description><StartTime><Timestamp dt:dt=""int"">0</Timestamp><DateUtc dt:dt=""string"">2023-04-04T14:48:23Z</DateUtc></StartTime><FrequencyChanges><FrequencyChange><Frequency dt:dt=""r8"">3312890</Frequency><Timestamp dt:dt=""r8"">23079292456</Timestamp><Current dt:dt=""r8"">0</Current><DateUtc dt:dt=""string"">2023-04-04T14:48:23Z</DateUtc></FrequencyChange></FrequencyChanges></Clock>\n";TMS_Ibrahim-51-1;75.030;1.0.0.561;1;;1605101662;2.0.10.242;2.0.10.242;04/04/2023;04/04/2023 14:48;16:48:23;2.0.10.147;0;;-999999;44;88662;0;1;2240;90902;1;1;1;2;1;0;1;BlockProcFischi;BlockList;1;125;0;;-999999;32;91912;0;1;441;92353;1;1;1;1;ProcFischi1;ListBlockFischi;26;1;1;1;0;5;Pomod_B;125;4;ug;5;2;63;1;26;4;1;TrialProc;493;1323;Pomod_B;247;1930;1683;ListFischi1;0;;2;201;272833;15;15;1965;274798;125;1;1965;1;418;205;1840;1;1
TMS_Ibrahim;51;1;"<?xml version=""1.0""?>\n<Clock xmlns:dt=""urn:schemas-microsoft-com:datatypes""><Description dt:dt=""string"">E-Prime Primary Realtime Clock</Description><StartTime><Timestamp dt:dt=""int"">0</Timestamp><DateUtc dt:dt=""string"">2023-04-04T14:48:23Z</DateUtc></StartTime><FrequencyChanges><FrequencyChange><Frequency dt:dt=""r8"">3312890</Frequency><Timestamp dt:dt=""r8"">23079292456</Timestamp><Current dt:dt=""r8"">0</Current><DateUtc dt:dt=""string"">2023-04-04T14:48:23Z</DateUtc></FrequencyChange></FrequencyChanges></Clock>\n";TMS_Ibrahim-51-1;75.030;1.0.0.561;1;;1605101662;2.0.10.242;2.0.10.242;04/04/2023;04/04/2023 14:48;16:48:23;2.0.10.147;0;;-999999;44;88662;0;1;2240;90902;1;1;1;2;1;0;1;BlockProcFischi;BlockList;1;125;0;;-999999;32;91912;0;1;441;92353;1;1;1;1;ProcFischi1;ListBlockFischi;27;1;1;0;0;3;Po8_B;125;2;op;3;2;42;1;27;2;0;TrialProc;598;1252;Po8_B;164;1750;1586;ListFischi1;0;;2;203;279647;12;133;2622;282269;270;1;1774;1;644;260;1504;1;1
TMS_Ibrahim;51;1;"<?xml version=""1.0""?>\n<Clock xmlns:dt=""urn:schemas-microsoft-com:datatypes""><Description dt:dt=""string"">E-Prime Primary Realtime Clock</Description><StartTime><Timestamp dt:dt=""int"">0</Timestamp><DateUtc dt:dt=""string"">2023-04-04T14:48:23Z</DateUtc></StartTime><FrequencyChanges><FrequencyChange><Frequency dt:dt=""r8"">3312890</Frequency><Timestamp dt:dt=""r8"">23079292456</Timestamp><Current dt:dt=""r8"">0</Current><DateUtc dt:dt=""string"">2023-04-04T14:48:23Z</DateUtc></FrequencyChange></FrequencyChanges></Clock>\n";TMS_Ibrahim-51-1;75.030;1.0.0.561;1;;1605101662;2.0.10.242;2.0.10.242;04/04/2023;04/04/2023 14:48;16:48:23;2.0.10.147;0;;-999999;44;88662;0;1;2240;90902;1;1;1;2;1;0;1;BlockProcFischi;BlockList;1;125;0;;-999999;32;91912;0;1;441;92353;1;1;1;1;ProcFischi1;ListBlockFischi;28;1;1;0;1;5;Po5_B;125;4;ug;5;2;52;1;28;4;1;TrialProc;561;987;Po5_B;132;1348;1480;ListFischi1;0;;2;201;285882;14;15;1379;287261;323;1;1379;1;433;327;1056;1;1
TMS_Ibrahim;51;1;"<?xml version=""1.0""?>\n<Clock xmlns:dt=""urn:schemas-microsoft-com:datatypes""><Description dt:dt=""string"">E-Prime Primary Realtime Clock</Description><StartTime><Timestamp dt:dt=""int"">0</Timestamp><DateUtc dt:dt=""string"">2023-04-04T14:48:23Z</DateUtc></StartTime><FrequencyChanges><FrequencyChange><Frequency dt:dt=""r8"">3312890</Frequency><Timestamp dt:dt=""r8"">23079292456</Timestamp><Current dt:dt=""r8"">0</Current><DateUtc dt:dt=""string"">2023-04-04T14:48:23Z</DateUtc></FrequencyChange></FrequencyChanges></Clock>\n";TMS_Ibrahim-51-1;75.030;1.0.0.561;1;;1605101662;2.0.10.242;2.0.10.242;04/04/2023;04/04/2023 14:48;16:48:23;2.0.10.147;0;;-999999;44;88662;0;1;2240;90902;1;1;1;2;1;0;1;BlockProcFischi;BlockList;1;125;0;;-999999;32;91912;0;1;441;92353;1;1;1;1;ProcFischi1;ListBlockFischi;29;1;2;0;0;3;Pr5_B;225;3;ug;3;2;30;1;29;3;1;TrialProc;778;679;Pr5_B;147;1426;1279;ListFischi1;0;;2;203;293295;12;13;1454;294749;302;1;1454;1;641;534;1152;1;1
TMS_Ibrahim;51;1;"<?xml version=""1.0""?>\n<Clock xmlns:dt=""urn:schemas-microsoft-com:datatypes""><Description dt:dt=""string"">E-Prime Primary Realtime Clock</Description><StartTime><Timestamp dt:dt=""int"">0</Timestamp><DateUtc dt:dt=""string"">2023-04-04T14:48:23Z</DateUtc></StartTime><FrequencyChanges><FrequencyChange><Frequency dt:dt=""r8"">3312890</Frequency><Timestamp dt:dt=""r8"">23079292456</Timestamp><Current dt:dt=""r8"">0</Current><DateUtc dt:dt=""string"">2023-04-04T14:48:23Z</DateUtc></FrequencyChange></FrequencyChanges></Clock>\n";TMS_Ibrahim-51-1;75.030;1.0.0.561;1;;1605101662;2.0.10.242;2.0.10.242;04/04/2023;04/04/2023 14:48;16:48:23;2.0.10.147;0;;-999999;44;88662;0;1;2240;90902;1;1;1;2;1;0;1;BlockProcFischi;BlockList;1;125;0;;-999999;32;91912;0;1;441;92353;1;1;1;1;ProcFischi1;ListBlockFischi;30;1;2;0;0;3;Pr5_B;200;3;ug;3;2;20;1;30;3;1;TrialProc;473;681;Pr5_B;97;1376;1279;ListFischi1;0;;2;201;300186;11;133;2323;302509;179;1;1395;1;689;255;1216;1;1
TMS_Ibrahim;51;1;"<?xml version=""1.0""?>\n<Clock xmlns:dt=""urn:schemas-microsoft-com:datatypes""><Description dt:dt=""string"">E-Prime Primary Realtime Clock</Description><StartTime><Timestamp dt:dt=""int"">0</Timestamp><DateUtc dt:dt=""string"">2023-04-04T14:48:23Z</DateUtc></StartTime><FrequencyChanges><FrequencyChange><Frequency dt:dt=""r8"">3312890</Frequency><Timestamp dt:dt=""r8"">23079292456</Timestamp><Current dt:dt=""r8"">0</Current><DateUtc dt:dt=""string"">2023-04-04T14:48:23Z</DateUtc></FrequencyChange></FrequencyChanges></Clock>\n";TMS_Ibrahim-51-1;75.030;1.0.0.561;1;;1605101662;2.0.10.242;2.0.10.242;04/04/2023;04/04/2023 14:48;16:48:23;2.0.10.147;0;;-999999;44;88662;0;1;2240;90902;1;1;1;2;1;0;1;BlockProcFischi;BlockList;1;125;0;;-999999;32;91912;0;1;441;92353;1;1;1;1;ProcFischi1;ListBlockFischi;31;1;1;0;1;5;Po8_B;125;4;ug;5;2;53;1;31;4;1;TrialProc;556;1252;Po8_B;61;1523;1585;ListFischi1;0;;2;203;306650;12;15;1554;308204;50;1;1554;1;1024;432;1504;1;1
TMS_Ibrahim;51;1;"<?xml version=""1.0""?>\n<Clock xmlns:dt=""urn:schemas-microsoft-com:datatypes""><Description dt:dt=""string"">E-Prime Primary Realtime Clock</Description><StartTime><Timestamp dt:dt=""int"">0</Timestamp><DateUtc dt:dt=""string"">2023-04-04T14:48:23Z</DateUtc></StartTime><FrequencyChanges><FrequencyChange><Frequency dt:dt=""r8"">3312890</Frequency><Timestamp dt:dt=""r8"">23079292456</Timestamp><Current dt:dt=""r8"">0</Current><DateUtc dt:dt=""string"">2023-04-04T14:48:23Z</DateUtc></FrequencyChange></FrequencyChanges></Clock>\n";TMS_Ibrahim-51-1;75.030;1.0.0.561;1;;1605101662;2.0.10.242;2.0.10.242;04/04/2023;04/04/2023 14:48;16:48:23;2.0.10.147;0;;-999999;44;88662;0;1;2240;90902;1;1;1;2;1;0;1;BlockProcFischi;BlockList;1;125;0;;-999999;32;91912;0;1;441;92353;1;1;1;1;ProcFischi1;ListBlockFischi;32;1;2;0;0;5;Pr5_B;125;1;op;5;2;9;1;32;1;0;TrialProc;836;680;Pr5_B;388;1667;1279;ListFischi1;0;;2;201;314020;12;15;1688;315708;313;1;1688;1;895;322;1375;1;1
TMS_Ibrahim;51;1;"<?xml version=""1.0""?>\n<Clock xmlns:dt=""urn:schemas-microsoft-com:datatypes""><Description dt:dt=""string"">E-Prime Primary Realtime Clock</Description><StartTime><Timestamp dt:dt=""int"">0</Timestamp><DateUtc dt:dt=""string"">2023-04-04T14:48:23Z</DateUtc></StartTime><FrequencyChanges><FrequencyChange><Frequency dt:dt=""r8"">3312890</Frequency><Timestamp dt:dt=""r8"">23079292456</Timestamp><Current dt:dt=""r8"">0</Current><DateUtc dt:dt=""string"">2023-04-04T14:48:23Z</DateUtc></FrequencyChange></FrequencyChanges></Clock>\n";TMS_Ibrahim-51-1;75.030;1.0.0.561;1;;1605101662;2.0.10.242;2.0.10.242;04/04/2023;04/04/2023 14:48;16:48:23;2.0.10.147;0;;-999999;44;88662;0;1;2240;90902;1;1;1;2;1;0;1;BlockProcFischi;BlockList;1;125;0;;-999999;32;91912;0;1;441;92353;1;1;1;1;ProcFischi1;ListBlockFischi;33;1;2;0;1;5;Pr2_B;125;1;op;5;2;1;1;33;1;0;TrialProc;662;718;Pr2_B;143;1394;1251;ListFischi1;0;;2;203;320872;11;15;1428;322300;165;1;1428;1;894;354;1263;1;1
TMS_Ibrahim;51;1;"<?xml version=""1.0""?>\n<Clock xmlns:dt=""urn:schemas-microsoft-com:datatypes""><Description dt:dt=""string"">E-Prime Primary Realtime Clock</Description><StartTime><Timestamp dt:dt=""int"">0</Timestamp><DateUtc dt:dt=""string"">2023-04-04T14:48:23Z</DateUtc></StartTime><FrequencyChanges><FrequencyChange><Frequency dt:dt=""r8"">3312890</Frequency><Timestamp dt:dt=""r8"">23079292456</Timestamp><Current dt:dt=""r8"">0</Current><DateUtc dt:dt=""string"">2023-04-04T14:48:23Z</DateUtc></FrequencyChange></FrequencyChanges></Clock>\n";TMS_Ibrahim-51-1;75.030;1.0.0.561;1;;1605101662;2.0.10.242;2.0.10.242;04/04/2023;04/04/2023 14:48;16:48:23;2.0.10.147;0;;-999999;44;88662;0;1;2240;90902;1;1;1;2;1;0;1;BlockProcFischi;BlockList;1;125;0;;-999999;32;91912;0;1;441;92353;1;1;1;1;ProcFischi1;ListBlockFischi;34;1;2;0;1;5;Pr3_B;125;1;op;5;2;12;1;34;1;0;TrialProc;617;716;Pr3_B;5;1720;1716;ListFischi1;0;;3;201;327829;11;15;1750;329579;263;1;1750;1;655;500;1487;1;1
TMS_Ibrahim;51;1;"<?xml version=""1.0""?>\n<Clock xmlns:dt=""urn:schemas-microsoft-com:datatypes""><Description dt:dt=""string"">E-Prime Primary Realtime Clock</Description><StartTime><Timestamp dt:dt=""int"">0</Timestamp><DateUtc dt:dt=""string"">2023-04-04T14:48:23Z</DateUtc></StartTime><FrequencyChanges><FrequencyChange><Frequency dt:dt=""r8"">3312890</Frequency><Timestamp dt:dt=""r8"">23079292456</Timestamp><Current dt:dt=""r8"">0</Current><DateUtc dt:dt=""string"">2023-04-04T14:48:23Z</DateUtc></FrequencyChange></FrequencyChanges></Clock>\n";TMS_Ibrahim-51-1;75.030;1.0.0.561;1;;1605101662;2.0.10.242;2.0.10.242;04/04/2023;04/04/2023 14:48;16:48:23;2.0.10.147;0;;-999999;44;88662;0;1;2240;90902;1;1;1;2;1;0;1;BlockProcFischi;BlockList;1;125;0;;-999999;32;91912;0;1;441;92353;1;1;1;1;ProcFischi1;ListBlockFischi;35;1;2;0;0;3;Pr2_B;175;3;ug;3;2;22;1;35;3;1;TrialProc;533;717;Pr2_B;64;1314;1250;ListFischi1;0;;2;203;335081;9;13;1346;336427;242;1;1346;1;879;454;1104;1;1
TMS_Ibrahim;51;1;"<?xml version=""1.0""?>\n<Clock xmlns:dt=""urn:schemas-microsoft-com:datatypes""><Description dt:dt=""string"">E-Prime Primary Realtime Clock</Description><StartTime><Timestamp dt:dt=""int"">0</Timestamp><DateUtc dt:dt=""string"">2023-04-04T14:48:23Z</DateUtc></StartTime><FrequencyChanges><FrequencyChange><Frequency dt:dt=""r8"">3312890</Frequency><Timestamp dt:dt=""r8"">23079292456</Timestamp><Current dt:dt=""r8"">0</Current><DateUtc dt:dt=""string"">2023-04-04T14:48:23Z</DateUtc></FrequencyChange></FrequencyChanges></Clock>\n";TMS_Ibrahim-51-1;75.030;1.0.0.561;1;;1605101662;2.0.10.242;2.0.10.242;04/04/2023;04/04/2023 14:48;16:48:23;2.0.10.147;0;;-999999;44;88662;0;1;2240;90902;1;1;1;2;1;0;1;BlockProcFischi;BlockList;1;125;0;;-999999;32;91912;0;1;441;92353;1;1;1;1;ProcFischi1;ListBlockFischi;36;1;1;0;1;3;Po4_B;125;2;op;3;2;35;1;36;2;0;TrialProc;587;1345;Po4_B;320;1399;1719;ListFischi1;0;;2;203;342355;13;13;1432;343787;200;1;1432;1;68;558;1232;1;1
TMS_Ibrahim;51;1;"<?xml version=""1.0""?>\n<Clock xmlns:dt=""urn:schemas-microsoft-com:datatypes""><Description dt:dt=""string"">E-Prime Primary Realtime Clock</Description><StartTime><Timestamp dt:dt=""int"">0</Timestamp><DateUtc dt:dt=""string"">2023-04-04T14:48:23Z</DateUtc></StartTime><FrequencyChanges><FrequencyChange><Frequency dt:dt=""r8"">3312890</Frequency><Timestamp dt:dt=""r8"">23079292456</Timestamp><Current dt:dt=""r8"">0</Current><DateUtc dt:dt=""string"">2023-04-04T14:48:23Z</DateUtc></FrequencyChange></FrequencyChanges></Clock>\n";TMS_Ibrahim-51-1;75.030;1.0.0.561;1;;1605101662;2.0.10.242;2.0.10.242;04/04/2023;04/04/2023 14:48;16:48:23;2.0.10.147;0;;-999999;44;88662;0;1;2240;90902;1;1;1;2;1;0;1;BlockProcFischi;BlockList;1;125;0;;-999999;32;91912;0;1;441;92353;1;1;1;1;ProcFischi1;ListBlockFischi;37;1;1;0;2;3;Po3_B;125;2;op;3;2;34;1;37;2;0;TrialProc;737;1321;Po3_B;63;1652;1589;ListFischi1;0;;1;201;349697;14;13;1674;351371;218;1;1674;1;364;415;1456;1;1
TMS_Ibrahim;51;1;"<?xml version=""1.0""?>\n<Clock xmlns:dt=""urn:schemas-microsoft-com:datatypes""><Description dt:dt=""string"">E-Prime Primary Realtime Clock</Description><StartTime><Timestamp dt:dt=""int"">0</Timestamp><DateUtc dt:dt=""string"">2023-04-04T14:48:23Z</DateUtc></StartTime><FrequencyChanges><FrequencyChange><Frequency dt:dt=""r8"">3312890</Frequency><Timestamp dt:dt=""r8"">23079292456</Timestamp><Current dt:dt=""r8"">0</Current><DateUtc dt:dt=""string"">2023-04-04T14:48:23Z</DateUtc></FrequencyChange></FrequencyChanges></Clock>\n";TMS_Ibrahim-51-1;75.030;1.0.0.561;1;;1605101662;2.0.10.242;2.0.10.242;04/04/2023;04/04/2023 14:48;16:48:23;2.0.10.147;0;;-999999;44;88662;0;1;2240;90902;1;1;1;2;1;0;1;BlockProcFischi;BlockList;1;125;0;;-999999;32;91912;0;1;441;92353;1;1;1;1;ProcFischi1;ListBlockFischi;38;1;2;0;0;3;Pr3_B;150;3;ug;3;2;18;1;38;3;1;TrialProc;517;715;Pr3_B;238;1477;1714;ListFischi1;0;;2;203;356820;8;13;1510;358330;134;1;1510;1;197;424;1376;1;1
TMS_Ibrahim;51;1;"<?xml version=""1.0""?>\n<Clock xmlns:dt=""urn:schemas-microsoft-com:datatypes""><Description dt:dt=""string"">E-Prime Primary Realtime Clock</Description><StartTime><Timestamp dt:dt=""int"">0</Timestamp><DateUtc dt:dt=""string"">2023-04-04T14:48:23Z</DateUtc></StartTime><FrequencyChanges><FrequencyChange><Frequency dt:dt=""r8"">3312890</Frequency><Timestamp dt:dt=""r8"">23079292456</Timestamp><Current dt:dt=""r8"">0</Current><DateUtc dt:dt=""string"">2023-04-04T14:48:23Z</DateUtc></FrequencyChange></FrequencyChanges></Clock>\n";TMS_Ibrahim-51-1;75.030;1.0.0.561;1;;1605101662;2.0.10.242;2.0.10.242;04/04/2023;04/04/2023 14:48;16:48:23;2.0.10.147;0;;-999999;44;88662;0;1;2240;90902;1;1;1;2;1;0;1;BlockProcFischi;BlockList;1;125;0;;-999999;32;91912;0;1;441;92353;1;1;1;1;ProcFischi1;ListBlockFischi;39;0;2;0;0;5;Pr3_B;;1;op;0;2;7;1;39;1;0;TrialProc;2982;718;Pr3_B;50;1667;1718;ListFischi1;0;;2;201;364161;11;5555;2905;367066;1;1;1;1;242;408;0;0;0
TMS_Ibrahim;51;1;"<?xml version=""1.0""?>\n<Clock xmlns:dt=""urn:schemas-microsoft-com:datatypes""><Description dt:dt=""string"">E-Prime Primary Realtime Clock</Description><StartTime><Timestamp dt:dt=""int"">0</Timestamp><DateUtc dt:dt=""string"">2023-04-04T14:48:23Z</DateUtc></StartTime><FrequencyChanges><FrequencyChange><Frequency dt:dt=""r8"">3312890</Frequency><Timestamp dt:dt=""r8"">23079292456</Timestamp><Current dt:dt=""r8"">0</Current><DateUtc dt:dt=""string"">2023-04-04T14:48:23Z</DateUtc></FrequencyChange></FrequencyChanges></Clock>\n";TMS_Ibrahim-51-1;75.030;1.0.0.561;1;;1605101662;2.0.10.242;2.0.10.242;04/04/2023;04/04/2023 14:48;16:48:23;2.0.10.147;0;;-999999;44;88662;0;1;2240;90902;1;1;1;2;1;0;1;BlockProcFischi;BlockList;1;125;0;;-999999;32;91912;0;1;441;92353;1;1;1;1;ProcFischi1;ListBlockFischi;40;1;1;0;0;5;Po3_B;100;4;ug;5;2;60;1;40;4;1;TrialProc;584;1318;Po3_B;73;1511;1585;ListFischi1;0;;2;203;372399;10;155;1947;374346;349;1;1531;1;365;263;1182;1;1
TMS_Ibrahim;51;1;"<?xml version=""1.0""?>\n<Clock xmlns:dt=""urn:schemas-microsoft-com:datatypes""><Description dt:dt=""string"">E-Prime Primary Realtime Clock</Description><StartTime><Timestamp dt:dt=""int"">0</Timestamp><DateUtc dt:dt=""string"">2023-04-04T14:48:23Z</DateUtc></StartTime><FrequencyChanges><FrequencyChange><Frequency dt:dt=""r8"">3312890</Frequency><Timestamp dt:dt=""r8"">23079292456</Timestamp><Current dt:dt=""r8"">0</Current><DateUtc dt:dt=""string"">2023-04-04T14:48:23Z</DateUtc></FrequencyChange></FrequencyChanges></Clock>\n";TMS_Ibrahim-51-1;75.030;1.0.0.561;1;;1605101662;2.0.10.242;2.0.10.242;04/04/2023;04/04/2023 14:48;16:48:23;2.0.10.147;0;;-999999;44;88662;0;1;2240;90902;1;1;1;2;1;0;1;BlockProcFischi;BlockList;1;125;0;;-999999;32;91912;0;1;441;92353;1;1;1;1;ProcFischi1;ListBlockFischi;41;1;2;0;1;3;Pr2_B;150;3;ug;3;2;27;1;41;3;1;TrialProc;643;724;Pr2_B;52;1309;1257;ListFischi1;0;;1;201;379351;15;13;1331;380682;179;1;1331;1;569;457;1152;1;1
TMS_Ibrahim;51;1;"<?xml version=""1.0""?>\n<Clock xmlns:dt=""urn:schemas-microsoft-com:datatypes""><Description dt:dt=""string"">E-Prime Primary Realtime Clock</Description><StartTime><Timestamp dt:dt=""int"">0</Timestamp><DateUtc dt:dt=""string"">2023-04-04T14:48:23Z</DateUtc></StartTime><FrequencyChanges><FrequencyChange><Frequency dt:dt=""r8"">3312890</Frequency><Timestamp dt:dt=""r8"">23079292456</Timestamp><Current dt:dt=""r8"">0</Current><DateUtc dt:dt=""string"">2023-04-04T14:48:23Z</DateUtc></FrequencyChange></FrequencyChanges></Clock>\n";TMS_Ibrahim-51-1;75.030;1.0.0.561;1;;1605101662;2.0.10.242;2.0.10.242;04/04/2023;04/04/2023 14:48;16:48:23;2.0.10.147;0;;-999999;44;88662;0;1;2240;90902;1;1;1;2;1;0;1;BlockProcFischi;BlockList;1;125;0;;-999999;32;91912;0;1;441;92353;1;1;1;1;ProcFischi1;ListBlockFischi;42;1;1;0;0;3;Po5_B;100;2;op;3;2;46;1;42;2;0;TrialProc;586;985;Po5_B;77;1401;1478;ListFischi1;0;;2;203;386632;11;13;1425;388057;353;1;1425;1;419;436;1072;1;1
TMS_Ibrahim;51;1;"<?xml version=""1.0""?>\n<Clock xmlns:dt=""urn:schemas-microsoft-com:datatypes""><Description dt:dt=""string"">E-Prime Primary Realtime Clock</Description><StartTime><Timestamp dt:dt=""int"">0</Timestamp><DateUtc dt:dt=""string"">2023-04-04T14:48:23Z</DateUtc></StartTime><FrequencyChanges><FrequencyChange><Frequency dt:dt=""r8"">3312890</Frequency><Timestamp dt:dt=""r8"">23079292456</Timestamp><Current dt:dt=""r8"">0</Current><DateUtc dt:dt=""string"">2023-04-04T14:48:23Z</DateUtc></FrequencyChange></FrequencyChanges></Clock>\n";TMS_Ibrahim-51-1;75.030;1.0.0.561;1;;1605101662;2.0.10.242;2.0.10.242;04/04/2023;04/04/2023 14:48;16:48:23;2.0.10.147;0;;-999999;44;88662;0;1;2240;90902;1;1;1;2;1;0;1;BlockProcFischi;BlockList;1;125;0;;-999999;32;91912;0;1;441;92353;1;1;1;1;ProcFischi1;ListBlockFischi;43;1;1;0;0;3;Po4_B;100;2;op;3;2;40;1;43;2;0;TrialProc;534;1349;Po4_B;235;1487;1722;ListFischi1;0;;2;201;393972;15;13;1509;395481;325;1;1509;1;249;526;1184;1;1
TMS_Ibrahim;51;1;"<?xml version=""1.0""?>\n<Clock xmlns:dt=""urn:schemas-microsoft-com:datatypes""><Description dt:dt=""string"">E-Prime Primary Realtime Clock</Description><StartTime><Timestamp dt:dt=""int"">0</Timestamp><DateUtc dt:dt=""string"">2023-04-04T14:48:23Z</DateUtc></StartTime><FrequencyChanges><FrequencyChange><Frequency dt:dt=""r8"">3312890</Frequency><Timestamp dt:dt=""r8"">23079292456</Timestamp><Current dt:dt=""r8"">0</Current><DateUtc dt:dt=""string"">2023-04-04T14:48:23Z</DateUtc></FrequencyChange></FrequencyChanges></Clock>\n";TMS_Ibrahim-51-1;75.030;1.0.0.561;1;;1605101662;2.0.10.242;2.0.10.242;04/04/2023;04/04/2023 14:48;16:48:23;2.0.10.147;0;;-999999;44;88662;0;1;2240;90902;1;1;1;2;1;0;1;BlockProcFischi;BlockList;1;125;0;;-999999;32;91912;0;1;441;92353;1;1;1;1;ProcFischi1;ListBlockFischi;44;1;1;0;0;5;Po2_B;75;4;ug;5;2;49;1;44;4;1;TrialProc;622;1583;Po2_B;213;1597;1810;ListFischi1;0;;2;203;401479;12;15;1618;403097;130;1;1618;1;339;363;1488;1;1
TMS_Ibrahim;51;1;"<?xml version=""1.0""?>\n<Clock xmlns:dt=""urn:schemas-microsoft-com:datatypes""><Description dt:dt=""string"">E-Prime Primary Realtime Clock</Description><StartTime><Timestamp dt:dt=""int"">0</Timestamp><DateUtc dt:dt=""string"">2023-04-04T14:48:23Z</DateUtc></StartTime><FrequencyChanges><FrequencyChange><Frequency dt:dt=""r8"">3312890</Frequency><Timestamp dt:dt=""r8"">23079292456</Timestamp><Current dt:dt=""r8"">0</Current><DateUtc dt:dt=""string"">2023-04-04T14:48:23Z</DateUtc></FrequencyChange></FrequencyChanges></Clock>\n";TMS_Ibrahim-51-1;75.030;1.0.0.561;1;;1605101662;2.0.10.242;2.0.10.242;04/04/2023;04/04/2023 14:48;16:48:23;2.0.10.147;0;;-999999;44;88662;0;1;2240;90902;1;1;1;2;1;0;1;BlockProcFischi;BlockList;1;125;0;;-999999;32;91912;0;1;441;92353;1;1;1;1;ProcFischi1;ListBlockFischi;45;1;2;0;0;5;Pr5_B;100;1;op;5;2;4;1;45;1;0;TrialProc;821;675;Pr5_B;134;1408;1275;ListFischi1;0;;2;201;408746;9;15;1438;410184;382;1;1438;1;477;289;1056;1;1
TMS_Ibrahim;51;1;"<?xml version=""1.0""?>\n<Clock xmlns:dt=""urn:schemas-microsoft-com:datatypes""><Description dt:dt=""string"">E-Prime Primary Realtime Clock</Description><StartTime><Timestamp dt:dt=""int"">0</Timestamp><DateUtc dt:dt=""string"">2023-04-04T14:48:23Z</DateUtc></StartTime><FrequencyChanges><FrequencyChange><Frequency dt:dt=""r8"">3312890</Frequency><Timestamp dt:dt=""r8"">23079292456</Timestamp><Current dt:dt=""r8"">0</Current><DateUtc dt:dt=""string"">2023-04-04T14:48:23Z</DateUtc></FrequencyChange></FrequencyChanges></Clock>\n";TMS_Ibrahim-51-1;75.030;1.0.0.561;1;;1605101662;2.0.10.242;2.0.10.242;04/04/2023;04/04/2023 14:48;16:48:23;2.0.10.147;0;;-999999;44;88662;0;1;2240;90902;1;1;1;2;1;0;1;BlockProcFischi;BlockList;1;125;0;;-999999;32;91912;0;1;441;92353;1;1;1;1;ProcFischi1;ListBlockFischi;46;1;1;0;1;3;Po5_B;100;2;op;3;2;36;1;46;2;0;TrialProc;625;990;Po5_B;118;1365;1483;ListFischi1;0;;2;203;415923;15;13;1413;417336;277;1;1413;1;454;457;1136;1;1
TMS_Ibrahim;51;1;"<?xml version=""1.0""?>\n<Clock xmlns:dt=""urn:schemas-microsoft-com:datatypes""><Description dt:dt=""string"">E-Prime Primary Realtime Clock</Description><StartTime><Timestamp dt:dt=""int"">0</Timestamp><DateUtc dt:dt=""string"">2023-04-04T14:48:23Z</DateUtc></StartTime><FrequencyChanges><FrequencyChange><Frequency dt:dt=""r8"">3312890</Frequency><Timestamp dt:dt=""r8"">23079292456</Timestamp><Current dt:dt=""r8"">0</Current><DateUtc dt:dt=""string"">2023-04-04T14:48:23Z</DateUtc></FrequencyChange></FrequencyChanges></Clock>\n";TMS_Ibrahim-51-1;75.030;1.0.0.561;1;;1605101662;2.0.10.242;2.0.10.242;04/04/2023;04/04/2023 14:48;16:48:23;2.0.10.147;0;;-999999;44;88662;0;1;2240;90902;1;1;1;2;1;0;1;BlockProcFischi;BlockList;1;125;0;;-999999;32;91912;0;1;441;92353;1;1;1;1;ProcFischi1;ListBlockFischi;47;1;2;0;1;5;Pr4_B;100;1;op;5;2;8;1;47;1;0;TrialProc;578;678;Pr4_B;88;1338;1251;ListFischi1;0;;2;201;423084;12;15;1372;424456;319;1;1372;1;515;441;1053;1;1
TMS_Ibrahim;51;1;"<?xml version=""1.0""?>\n<Clock xmlns:dt=""urn:schemas-microsoft-com:datatypes""><Description dt:dt=""string"">E-Prime Primary Realtime Clock</Description><StartTime><Timestamp dt:dt=""int"">0</Timestamp><DateUtc dt:dt=""string"">2023-04-04T14:48:23Z</DateUtc></StartTime><FrequencyChanges><FrequencyChange><Frequency dt:dt=""r8"">3312890</Frequency><Timestamp dt:dt=""r8"">23079292456</Timestamp><Current dt:dt=""r8"">0</Current><DateUtc dt:dt=""string"">2023-04-04T14:48:23Z</DateUtc></FrequencyChange></FrequencyChanges></Clock>\n";TMS_Ibrahim-51-1;75.030;1.0.0.561;1;;1605101662;2.0.10.242;2.0.10.242;04/04/2023;04/04/2023 14:48;16:48:23;2.0.10.147;0;;-999999;44;88662;0;1;2240;90902;1;1;1;2;1;0;1;BlockProcFischi;BlockList;1;125;0;;-999999;32;91912;0;1;441;92353;1;1;1;1;ProcFischi1;ListBlockFischi;48;1;2;0;0;3;Pr3_B;125;3;ug;3;2;28;1;48;3;1;TrialProc;694;716;Pr3_B;124;1592;1716;ListFischi1;0;;2;203;430151;9;133;1793;431944;273;1;1617;1;166;451;1344;1;1
TMS_Ibrahim;51;1;"<?xml version=""1.0""?>\n<Clock xmlns:dt=""urn:schemas-microsoft-com:datatypes""><Description dt:dt=""string"">E-Prime Primary Realtime Clock</Description><StartTime><Timestamp dt:dt=""int"">0</Timestamp><DateUtc dt:dt=""string"">2023-04-04T14:48:23Z</DateUtc></StartTime><FrequencyChanges><FrequencyChange><Frequency dt:dt=""r8"">3312890</Frequency><Timestamp dt:dt=""r8"">23079292456</Timestamp><Current dt:dt=""r8"">0</Current><DateUtc dt:dt=""string"">2023-04-04T14:48:23Z</DateUtc></FrequencyChange></FrequencyChanges></Clock>\n";TMS_Ibrahim-51-1;75.030;1.0.0.561;1;;1605101662;2.0.10.242;2.0.10.242;04/04/2023;04/04/2023 14:48;16:48:23;2.0.10.147;0;;-999999;44;88662;0;1;2240;90902;1;1;1;2;1;0;1;BlockProcFischi;BlockList;1;125;0;;-999999;32;91912;0;1;441;92353;1;1;1;1;ProcFischi1;ListBlockFischi;49;1;1;0;1;3;Po2_B;100;2;op;3;2;33;1;49;2;0;TrialProc;572;1587;Po2_B;146;1666;1813;ListFischi1;0;;3;201;437235;15;13;1700;438935;244;1;1700;1;221;536;1456;1;1
TMS_Ibrahim;51;1;"<?xml version=""1.0""?>\n<Clock xmlns:dt=""urn:schemas-microsoft-com:datatypes""><Description dt:dt=""string"">E-Prime Primary Realtime Clock</Description><StartTime><Timestamp dt:dt=""int"">0</Timestamp><DateUtc dt:dt=""string"">2023-04-04T14:48:23Z</DateUtc></StartTime><FrequencyChanges><FrequencyChange><Frequency dt:dt=""r8"">3312890</Frequency><Timestamp dt:dt=""r8"">23079292456</Timestamp><Current dt:dt=""r8"">0</Current><DateUtc dt:dt=""string"">2023-04-04T14:48:23Z</DateUtc></FrequencyChange></FrequencyChanges></Clock>\n";TMS_Ibrahim-51-1;75.030;1.0.0.561;1;;1605101662;2.0.10.242;2.0.10.242;04/04/2023;04/04/2023 14:48;16:48:23;2.0.10.147;0;;-999999;44;88662;0;1;2240;90902;1;1;1;2;1;0;1;BlockProcFischi;BlockList;1;125;0;;-999999;32;91912;0;1;441;92353;1;1;1;1;ProcFischi1;ListBlockFischi;50;1;1;0;1;5;Po3_B;75;4;ug;5;2;50;1;50;4;1;TrialProc;490;1315;Po3_B;87;1670;1582;ListFischi1;0;;2;203;444624;10;15;1703;446327;311;1;1703;1;221;447;1392;1;1
TMS_Ibrahim;51;1;"<?xml version=""1.0""?>\n<Clock xmlns:dt=""urn:schemas-microsoft-com:datatypes""><Description dt:dt=""string"">E-Prime Primary Realtime Clock</Description><StartTime><Timestamp dt:dt=""int"">0</Timestamp><DateUtc dt:dt=""string"">2023-04-04T14:48:23Z</DateUtc></StartTime><FrequencyChanges><FrequencyChange><Frequency dt:dt=""r8"">3312890</Frequency><Timestamp dt:dt=""r8"">23079292456</Timestamp><Current dt:dt=""r8"">0</Current><DateUtc dt:dt=""string"">2023-04-04T14:48:23Z</DateUtc></FrequencyChange></FrequencyChanges></Clock>\n";TMS_Ibrahim-51-1;75.030;1.0.0.561;1;;1605101662;2.0.10.242;2.0.10.242;04/04/2023;04/04/2023 14:48;16:48:23;2.0.10.147;0;;-999999;44;88662;0;1;2240;90902;1;1;1;2;1;0;1;BlockProcFischi;BlockList;1;125;0;;-999999;32;91912;0;1;441;92353;1;1;1;1;ProcFischi1;ListBlockFischi;51;1;2;0;0;3;Pr3_B;125;3;ug;3;2;23;1;51;3;1;TrialProc;493;717;Pr3_B;185;1532;1717;ListFischi1;0;;2;201;451634;10;13;1557;453191;293;1;1557;1;178;586;1264;1;1
TMS_Ibrahim;51;1;"<?xml version=""1.0""?>\n<Clock xmlns:dt=""urn:schemas-microsoft-com:datatypes""><Description dt:dt=""string"">E-Prime Primary Realtime Clock</Description><StartTime><Timestamp dt:dt=""int"">0</Timestamp><DateUtc dt:dt=""string"">2023-04-04T14:48:23Z</DateUtc></StartTime><FrequencyChanges><FrequencyChange><Frequency dt:dt=""r8"">3312890</Frequency><Timestamp dt:dt=""r8"">23079292456</Timestamp><Current dt:dt=""r8"">0</Current><DateUtc dt:dt=""string"">2023-04-04T14:48:23Z</DateUtc></FrequencyChange></FrequencyChanges></Clock>\n";TMS_Ibrahim-51-1;75.030;1.0.0.561;1;;1605101662;2.0.10.242;2.0.10.242;04/04/2023;04/04/2023 14:48;16:48:23;2.0.10.147;0;;-999999;44;88662;0;1;2240;90902;1;1;1;2;1;0;1;BlockProcFischi;BlockList;1;125;0;;-999999;32;91912;0;1;441;92353;1;1;1;1;ProcFischi1;ListBlockFischi;52;1;1;0;2;3;Po3_B;100;2;op;3;2;44;1;52;2;0;TrialProc;424;1317;Po3_B;166;1750;1584;ListFischi1;0;;2;203;459124;11;13;1779;460903;371;1;1779;1;558;237;1408;1;1
TMS_Ibrahim;51;1;"<?xml version=""1.0""?>\n<Clock xmlns:dt=""urn:schemas-microsoft-com:datatypes""><Description dt:dt=""string"">E-Prime Primary Realtime Clock</Description><StartTime><Timestamp dt:dt=""int"">0</Timestamp><DateUtc dt:dt=""string"">2023-04-04T14:48:23Z</DateUtc></StartTime><FrequencyChanges><FrequencyChange><Frequency dt:dt=""r8"">3312890</Frequency><Timestamp dt:dt=""r8"">23079292456</Timestamp><Current dt:dt=""r8"">0</Current><DateUtc dt:dt=""string"">2023-04-04T14:48:23Z</DateUtc></FrequencyChange></FrequencyChanges></Clock>\n";TMS_Ibrahim-51-1;75.030;1.0.0.561;1;;1605101662;2.0.10.242;2.0.10.242;04/04/2023;04/04/2023 14:48;16:48:23;2.0.10.147;0;;-999999;44;88662;0;1;2240;90902;1;1;1;2;1;0;1;BlockProcFischi;BlockList;1;125;0;;-999999;32;91912;0;1;441;92353;1;1;1;1;ProcFischi1;ListBlockFischi;53;1;2;1;1;3;Prmod_B;125;3;ug;3;2;31;1;53;3;1;TrialProc;484;1319;Prmod_B;54;1707;1654;ListFischi1;0;;2;201;466132;13;133;2434;468566;418;1;1730;1;330;323;1312;1;1
TMS_Ibrahim;51;1;"<?xml version=""1.0""?>\n<Clock xmlns:dt=""urn:schemas-microsoft-com:datatypes""><Description dt:dt=""string"">E-Prime Primary Realtime Clock</Description><StartTime><Timestamp dt:dt=""int"">0</Timestamp><DateUtc dt:dt=""string"">2023-04-04T14:48:23Z</DateUtc></StartTime><FrequencyChanges><FrequencyChange><Frequency dt:dt=""r8"">3312890</Frequency><Timestamp dt:dt=""r8"">23079292456</Timestamp><Current dt:dt=""r8"">0</Current><DateUtc dt:dt=""string"">2023-04-04T14:48:23Z</DateUtc></FrequencyChange></FrequencyChanges></Clock>\n";TMS_Ibrahim-51-1;75.030;1.0.0.561;1;;1605101662;2.0.10.242;2.0.10.242;04/04/2023;04/04/2023 14:48;16:48:23;2.0.10.147;0;;-999999;44;88662;0;1;2240;90902;1;1;1;2;1;0;1;BlockProcFischi;BlockList;1;125;0;;-999999;32;91912;0;1;441;92353;1;1;1;1;ProcFischi1;ListBlockFischi;54;1;2;0;1;5;Pr4_B;100;1;op;5;2;3;1;54;1;0;TrialProc;511;678;Pr4_B;197;1448;1252;ListFischi1;0;;2;203;472691;12;15;1475;474166;435;1;1475;1;319;403;1040;1;1
TMS_Ibrahim;51;1;"<?xml version=""1.0""?>\n<Clock xmlns:dt=""urn:schemas-microsoft-com:datatypes""><Description dt:dt=""string"">E-Prime Primary Realtime Clock</Description><StartTime><Timestamp dt:dt=""int"">0</Timestamp><DateUtc dt:dt=""string"">2023-04-04T14:48:23Z</DateUtc></StartTime><FrequencyChanges><FrequencyChange><Frequency dt:dt=""r8"">3312890</Frequency><Timestamp dt:dt=""r8"">23079292456</Timestamp><Current dt:dt=""r8"">0</Current><DateUtc dt:dt=""string"">2023-04-04T14:48:23Z</DateUtc></FrequencyChange></FrequencyChanges></Clock>\n";TMS_Ibrahim-51-1;75.030;1.0.0.561;1;;1605101662;2.0.10.242;2.0.10.242;04/04/2023;04/04/2023 14:48;16:48:23;2.0.10.147;0;;-999999;44;88662;0;1;2240;90902;1;1;1;2;1;0;1;BlockProcFischi;BlockList;1;125;0;;-999999;32;91912;0;1;441;92353;1;1;1;1;ProcFischi1;ListBlockFischi;55;0;2;0;0;3;Pr5_B;;3;ug;1;2;25;1;55;3;1;TrialProc;1074;678;Pr5_B;197;1448;1277;ListFischi1;0;;2;201;479596;11;13;1578;481174;282;1;1;1;223;243;-281;1;0
TMS_Ibrahim;51;1;"<?xml version=""1.0""?>\n<Clock xmlns:dt=""urn:schemas-microsoft-com:datatypes""><Description dt:dt=""string"">E-Prime Primary Realtime Clock</Description><StartTime><Timestamp dt:dt=""int"">0</Timestamp><DateUtc dt:dt=""string"">2023-04-04T14:48:23Z</DateUtc></StartTime><FrequencyChanges><FrequencyChange><Frequency dt:dt=""r8"">3312890</Frequency><Timestamp dt:dt=""r8"">23079292456</Timestamp><Current dt:dt=""r8"">0</Current><DateUtc dt:dt=""string"">2023-04-04T14:48:23Z</DateUtc></FrequencyChange></FrequencyChanges></Clock>\n";TMS_Ibrahim-51-1;75.030;1.0.0.561;1;;1605101662;2.0.10.242;2.0.10.242;04/04/2023;04/04/2023 14:48;16:48:23;2.0.10.147;0;;-999999;44;88662;0;1;2240;90902;1;1;1;2;1;0;1;BlockProcFischi;BlockList;1;125;0;;-999999;32;91912;0;1;441;92353;1;1;1;1;ProcFischi1;ListBlockFischi;56;1;2;0;0;3;Pr4_B;100;3;ug;3;2;19;1;56;3;1;TrialProc;614;675;Pr4_B;82;1331;1248;ListFischi1;0;;2;203;486449;8;13;1364;487813;389;1;1364;1;492;562;975;1;1
TMS_Ibrahim;51;1;"<?xml version=""1.0""?>\n<Clock xmlns:dt=""urn:schemas-microsoft-com:datatypes""><Description dt:dt=""string"">E-Prime Primary Realtime Clock</Description><StartTime><Timestamp dt:dt=""int"">0</Timestamp><DateUtc dt:dt=""string"">2023-04-04T14:48:23Z</DateUtc></StartTime><FrequencyChanges><FrequencyChange><Frequency dt:dt=""r8"">3312890</Frequency><Timestamp dt:dt=""r8"">23079292456</Timestamp><Current dt:dt=""r8"">0</Current><DateUtc dt:dt=""string"">2023-04-04T14:48:23Z</DateUtc></FrequencyChange></FrequencyChanges></Clock>\n";TMS_Ibrahim-51-1;75.030;1.0.0.561;1;;1605101662;2.0.10.242;2.0.10.242;04/04/2023;04/04/2023 14:48;16:48:23;2.0.10.147;0;;-999999;44;88662;0;1;2240;90902;1;1;1;2;1;0;1;BlockProcFischi;BlockList;1;125;0;;-999999;32;91912;0;1;441;92353;1;1;1;1;ProcFischi1;ListBlockFischi;57;1;2;0;0;3;Pr4_B;100;3;ug;3;2;24;1;57;3;1;TrialProc;536;674;Pr4_B;76;1321;1246;ListFischi1;0;;3;201;493380;8;13;1345;494725;161;1;1345;1;446;466;1184;1;1
TMS_Ibrahim;51;1;"<?xml version=""1.0""?>\n<Clock xmlns:dt=""urn:schemas-microsoft-com:datatypes""><Description dt:dt=""string"">E-Prime Primary Realtime Clock</Description><StartTime><Timestamp dt:dt=""int"">0</Timestamp><DateUtc dt:dt=""string"">2023-04-04T14:48:23Z</DateUtc></StartTime><FrequencyChanges><FrequencyChange><Frequency dt:dt=""r8"">3312890</Frequency><Timestamp dt:dt=""r8"">23079292456</Timestamp><Current dt:dt=""r8"">0</Current><DateUtc dt:dt=""string"">2023-04-04T14:48:23Z</DateUtc></FrequencyChange></FrequencyChanges></Clock>\n";TMS_Ibrahim-51-1;75.030;1.0.0.561;1;;1605101662;2.0.10.242;2.0.10.242;04/04/2023;04/04/2023 14:48;16:48:23;2.0.10.147;0;;-999999;44;88662;0;1;2240;90902;1;1;1;2;1;0;1;BlockProcFischi;BlockList;1;125;0;;-999999;32;91912;0;1;441;92353;1;1;1;1;ProcFischi1;ListBlockFischi;58;1;2;0;2;5;Pr5_B;100;1;op;5;2;14;1;58;1;0;TrialProc;542;680;Pr5_B;99;1380;1280;ListFischi1;0;;2;203;500357;15;15;1408;501765;336;1;1408;1;481;354;1072;1;1
TMS_Ibrahim;51;1;"<?xml version=""1.0""?>\n<Clock xmlns:dt=""urn:schemas-microsoft-com:datatypes""><Description dt:dt=""string"">E-Prime Primary Realtime Clock</Description><StartTime><Timestamp dt:dt=""int"">0</Timestamp><DateUtc dt:dt=""string"">2023-04-04T14:48:23Z</DateUtc></StartTime><FrequencyChanges><FrequencyChange><Frequency dt:dt=""r8"">3312890</Frequency><Timestamp dt:dt=""r8"">23079292456</Timestamp><Current dt:dt=""r8"">0</Current><DateUtc dt:dt=""string"">2023-04-04T14:48:23Z</DateUtc></FrequencyChange></FrequencyChanges></Clock>\n";TMS_Ibrahim-51-1;75.030;1.0.0.561;1;;1605101662;2.0.10.242;2.0.10.242;04/04/2023;04/04/2023 14:48;16:48:23;2.0.10.147;0;;-999999;44;88662;0;1;2240;90902;1;1;1;2;1;0;1;BlockProcFischi;BlockList;1;125;0;;-999999;32;91912;0;1;441;92353;1;1;1;1;ProcFischi1;ListBlockFischi;59;1;2;0;2;5;Pr2_B;100;1;op;5;2;6;1;59;1;0;TrialProc;517;721;Pr2_B;154;1409;1255;ListFischi1;0;;1;201;507515;14;15;1434;508949;490;1;1434;1;391;357;944;1;1
TMS_Ibrahim;51;1;"<?xml version=""1.0""?>\n<Clock xmlns:dt=""urn:schemas-microsoft-com:datatypes""><Description dt:dt=""string"">E-Prime Primary Realtime Clock</Description><StartTime><Timestamp dt:dt=""int"">0</Timestamp><DateUtc dt:dt=""string"">2023-04-04T14:48:23Z</DateUtc></StartTime><FrequencyChanges><FrequencyChange><Frequency dt:dt=""r8"">3312890</Frequency><Timestamp dt:dt=""r8"">23079292456</Timestamp><Current dt:dt=""r8"">0</Current><DateUtc dt:dt=""string"">2023-04-04T14:48:23Z</DateUtc></FrequencyChange></FrequencyChanges></Clock>\n";TMS_Ibrahim-51-1;75.030;1.0.0.561;1;;1605101662;2.0.10.242;2.0.10.242;04/04/2023;04/04/2023 14:48;16:48:23;2.0.10.147;0;;-999999;44;88662;0;1;2240;90902;1;1;1;2;1;0;1;BlockProcFischi;BlockList;1;125;0;;-999999;32;91912;0;1;441;92353;1;1;1;1;ProcFischi1;ListBlockFischi;60;0;2;1;0;5;Prmod_B;;1;op;1;2;15;1;60;1;0;TrialProc;1042;1319;Prmod_B;154;1409;1653;ListFischi1;0;;2;203;514513;13;15;2131;516644;421;1;1;1;408;282;-420;1;0
TMS_Ibrahim;51;1;"<?xml version=""1.0""?>\n<Clock xmlns:dt=""urn:schemas-microsoft-com:datatypes""><Description dt:dt=""string"">E-Prime Primary Realtime Clock</Description><StartTime><Timestamp dt:dt=""int"">0</Timestamp><DateUtc dt:dt=""string"">2023-04-04T14:48:23Z</DateUtc></StartTime><FrequencyChanges><FrequencyChange><Frequency dt:dt=""r8"">3312890</Frequency><Timestamp dt:dt=""r8"">23079292456</Timestamp><Current dt:dt=""r8"">0</Current><DateUtc dt:dt=""string"">2023-04-04T14:48:23Z</DateUtc></FrequencyChange></FrequencyChanges></Clock>\n";TMS_Ibrahim-51-1;75.030;1.0.0.561;1;;1605101662;2.0.10.242;2.0.10.242;04/04/2023;04/04/2023 14:48;16:48:23;2.0.10.147;0;;-999999;44;88662;0;1;2240;90902;1;1;1;2;1;0;1;BlockProcFischi;BlockList;1;125;0;;-999999;32;91912;0;1;441;92353;1;1;1;1;ProcFischi1;ListBlockFischi;61;1;1;0;0;3;Po3_B;125;2;op;3;2;39;1;61;2;0;TrialProc;424;1316;Po3_B;369;1951;1581;ListFischi1;0;;2;203;526073;9;13;1979;528052;587;1;1979;1;361;495;1392;1;1
TMS_Ibrahim;51;1;"<?xml version=""1.0""?>\n<Clock xmlns:dt=""urn:schemas-microsoft-com:datatypes""><Description dt:dt=""string"">E-Prime Primary Realtime Clock</Description><StartTime><Timestamp dt:dt=""int"">0</Timestamp><DateUtc dt:dt=""string"">2023-04-04T14:48:23Z</DateUtc></StartTime><FrequencyChanges><FrequencyChange><Frequency dt:dt=""r8"">3312890</Frequency><Timestamp dt:dt=""r8"">23079292456</Timestamp><Current dt:dt=""r8"">0</Current><DateUtc dt:dt=""string"">2023-04-04T14:48:23Z</DateUtc></FrequencyChange></FrequencyChanges></Clock>\n";TMS_Ibrahim-51-1;75.030;1.0.0.561;1;;1605101662;2.0.10.242;2.0.10.242;04/04/2023;04/04/2023 14:48;16:48:23;2.0.10.147;0;;-999999;44;88662;0;1;2240;90902;1;1;1;2;1;0;1;BlockProcFischi;BlockList;1;125;0;;-999999;32;91912;0;1;441;92353;1;1;1;1;ProcFischi1;ListBlockFischi;62;1;2;0;0;3;Pr8_B;100;3;ug;3;2;26;1;62;3;1;TrialProc;520;721;Pr8_B;13;1732;1746;ListFischi1;0;;2;201;533053;13;13;1751;534804;103;1;1751;1;305;347;1648;1;1
TMS_Ibrahim;51;1;"<?xml version=""1.0""?>\n<Clock xmlns:dt=""urn:schemas-microsoft-com:datatypes""><Description dt:dt=""string"">E-Prime Primary Realtime Clock</Description><StartTime><Timestamp dt:dt=""int"">0</Timestamp><DateUtc dt:dt=""string"">2023-04-04T14:48:23Z</DateUtc></StartTime><FrequencyChanges><FrequencyChange><Frequency dt:dt=""r8"">3312890</Frequency><Timestamp dt:dt=""r8"">23079292456</Timestamp><Current dt:dt=""r8"">0</Current><DateUtc dt:dt=""string"">2023-04-04T14:48:23Z</DateUtc></FrequencyChange></FrequencyChanges></Clock>\n";TMS_Ibrahim-51-1;75.030;1.0.0.561;1;;1605101662;2.0.10.242;2.0.10.242;04/04/2023;04/04/2023 14:48;16:48:23;2.0.10.147;0;;-999999;44;88662;0;1;2240;90902;1;1;1;2;1;0;1;BlockProcFischi;BlockList;1;125;0;;-999999;32;91912;0;1;441;92353;1;1;1;1;ProcFischi1;ListBlockFischi;63;1;2;0;0;3;Pr8_B;75;3;ug;3;2;21;1;63;3;1;TrialProc;551;713;Pr8_B;99;1679;1778;ListFischi1;0;;2;203;540417;6;13;1714;542131;594;1;1714;1;621;505;1120;1;1
TMS_Ibrahim;51;1;"<?xml version=""1.0""?>\n<Clock xmlns:dt=""urn:schemas-microsoft-com:datatypes""><Description dt:dt=""string"">E-Prime Primary Realtime Clock</Description><StartTime><Timestamp dt:dt=""int"">0</Timestamp><DateUtc dt:dt=""string"">2023-04-04T14:48:23Z</DateUtc></StartTime><FrequencyChanges><FrequencyChange><Frequency dt:dt=""r8"">3312890</Frequency><Timestamp dt:dt=""r8"">23079292456</Timestamp><Current dt:dt=""r8"">0</Current><DateUtc dt:dt=""string"">2023-04-04T14:48:23Z</DateUtc></FrequencyChange></FrequencyChanges></Clock>\n";TMS_Ibrahim-51-1;75.030;1.0.0.561;1;;1605101662;2.0.10.242;2.0.10.242;04/04/2023;04/04/2023 14:48;16:48:23;2.0.10.147;0;;-999999;44;88662;0;1;2240;90902;1;1;1;2;1;0;1;BlockProcFischi;BlockList;1;125;0;;-999999;32;91912;0;1;441;92353;1;1;1;1;ProcFischi1;ListBlockFischi;64;1;1;1;1;5;Pomod_B;75;4;ug;5;2;64;1;64;4;1;TrialProc;568;1316;Pomod_B;58;1735;1677;ListFischi1;0;;2;201;547570;10;15;1761;549331;529;1;1761;1;642;478;1232;1;1
TMS_Ibrahim;51;3;"<?xml version=""1.0""?>\n<Clock xmlns:dt=""urn:schemas-microsoft-com:datatypes""><Description dt:dt=""string"">E-Prime Primary Realtime Clock</Description><StartTime><Timestamp dt:dt=""int"">0</Timestamp><DateUtc dt:dt=""string"">2023-04-04T15:50:09Z</DateUtc></StartTime><FrequencyChanges><FrequencyChange><Frequency dt:dt=""r8"">3312890</Frequency><Timestamp dt:dt=""r8"">35356145367</Timestamp><Current dt:dt=""r8"">0</Current><DateUtc dt:dt=""string"">2023-04-04T15:50:09Z</DateUtc></FrequencyChange></FrequencyChanges></Clock>\n";TMS_Ibrahim-51-3;75.029;1.0.0.561;1;;997053222;2.0.10.242;2.0.10.242;04/04/2023;04/04/2023 15:50;17:50:09;2.0.10.147;0;;-999999;50;53809;0;1;1197;55006;1;1;1;2;1;1;1;BlockProcFischi;BlockList;1;75;0;;-999999;32;56853;0;1;1029;57882;1;1;1;1;ProcFischi1;ListBlockFischi;1;1;1;0;0;5;Po5_B;250;4;ug;5;2;52;1;1;4;1;TrialProc;2184;1025;Po5_B;95;1410;1505;ListFischi1;0;;5;210;61723;28;155;1478;63201;406;1;1446;1;299;435;1040;1;1
TMS_Ibrahim;51;3;"<?xml version=""1.0""?>\n<Clock xmlns:dt=""urn:schemas-microsoft-com:datatypes""><Description dt:dt=""string"">E-Prime Primary Realtime Clock</Description><StartTime><Timestamp dt:dt=""int"">0</Timestamp><DateUtc dt:dt=""string"">2023-04-04T15:50:09Z</DateUtc></StartTime><FrequencyChanges><FrequencyChange><Frequency dt:dt=""r8"">3312890</Frequency><Timestamp dt:dt=""r8"">35356145367</Timestamp><Current dt:dt=""r8"">0</Current><DateUtc dt:dt=""string"">2023-04-04T15:50:09Z</DateUtc></FrequencyChange></FrequencyChanges></Clock>\n";TMS_Ibrahim-51-3;75.029;1.0.0.561;1;;997053222;2.0.10.242;2.0.10.242;04/04/2023;04/04/2023 15:50;17:50:09;2.0.10.147;0;;-999999;50;53809;0;1;1197;55006;1;1;1;2;1;1;1;BlockProcFischi;BlockList;1;75;0;;-999999;32;56853;0;1;1029;57882;1;1;1;1;ProcFischi1;ListBlockFischi;2;1;2;0;0;3;Pr5_B;250;3;ug;3;2;20;1;2;3;1;TrialProc;2211;676;Pr5_B;43;1319;1275;ListFischi1;0;;1;206;69328;7;13;1345;70673;193;1;1345;1;568;563;1152;1;1
TMS_Ibrahim;51;3;"<?xml version=""1.0""?>\n<Clock xmlns:dt=""urn:schemas-microsoft-com:datatypes""><Description dt:dt=""string"">E-Prime Primary Realtime Clock</Description><StartTime><Timestamp dt:dt=""int"">0</Timestamp><DateUtc dt:dt=""string"">2023-04-04T15:50:09Z</DateUtc></StartTime><FrequencyChanges><FrequencyChange><Frequency dt:dt=""r8"">3312890</Frequency><Timestamp dt:dt=""r8"">35356145367</Timestamp><Current dt:dt=""r8"">0</Current><DateUtc dt:dt=""string"">2023-04-04T15:50:09Z</DateUtc></FrequencyChange></FrequencyChanges></Clock>\n";TMS_Ibrahim-51-3;75.029;1.0.0.561;1;;997053222;2.0.10.242;2.0.10.242;04/04/2023;04/04/2023 15:50;17:50:09;2.0.10.147;0;;-999999;50;53809;0;1;1197;55006;1;1;1;2;1;1;1;BlockProcFischi;BlockList;1;75;0;;-999999;32;56853;0;1;1029;57882;1;1;1;1;ProcFischi1;ListBlockFischi;3;1;1;0;0;3;Po3_B;250;2;op;3;2;34;1;3;2;0;TrialProc;1148;1319;Po3_B;80;1507;1586;ListFischi1;0;;2;203;77053;12;13;1540;78593;292;1;1540;1;375;516;1248;1;1
TMS_Ibrahim;51;3;"<?xml version=""1.0""?>\n<Clock xmlns:dt=""urn:schemas-microsoft-com:datatypes""><Description dt:dt=""string"">E-Prime Primary Realtime Clock</Description><StartTime><Timestamp dt:dt=""int"">0</Timestamp><DateUtc dt:dt=""string"">2023-04-04T15:50:09Z</DateUtc></StartTime><FrequencyChanges><FrequencyChange><Frequency dt:dt=""r8"">3312890</Frequency><Timestamp dt:dt=""r8"">35356145367</Timestamp><Current dt:dt=""r8"">0</Current><DateUtc dt:dt=""string"">2023-04-04T15:50:09Z</DateUtc></FrequencyChange></FrequencyChanges></Clock>\n";TMS_Ibrahim-51-3;75.029;1.0.0.561;1;;997053222;2.0.10.242;2.0.10.242;04/04/2023;04/04/2023 15:50;17:50:09;2.0.10.147;0;;-999999;50;53809;0;1;1197;55006;1;1;1;2;1;1;1;BlockProcFischi;BlockList;1;75;0;;-999999;32;56853;0;1;1029;57882;1;1;1;1;ProcFischi1;ListBlockFischi;4;1;2;0;0;5;Pr5_B;250;1;op;5;2;9;1;4;1;0;TrialProc;1906;681;Pr5_B;127;1407;1280;ListFischi1;0;;2;203;85462;13;15;1434;86896;346;1;1434;1;740;589;1088;1;1
TMS_Ibrahim;51;3;"<?xml version=""1.0""?>\n<Clock xmlns:dt=""urn:schemas-microsoft-com:datatypes""><Description dt:dt=""string"">E-Prime Primary Realtime Clock</Description><StartTime><Timestamp dt:dt=""int"">0</Timestamp><DateUtc dt:dt=""string"">2023-04-04T15:50:09Z</DateUtc></StartTime><FrequencyChanges><FrequencyChange><Frequency dt:dt=""r8"">3312890</Frequency><Timestamp dt:dt=""r8"">35356145367</Timestamp><Current dt:dt=""r8"">0</Current><DateUtc dt:dt=""string"">2023-04-04T15:50:09Z</DateUtc></FrequencyChange></FrequencyChanges></Clock>\n";TMS_Ibrahim-51-3;75.029;1.0.0.561;1;;997053222;2.0.10.242;2.0.10.242;04/04/2023;04/04/2023 15:50;17:50:09;2.0.10.147;0;;-999999;50;53809;0;1;1197;55006;1;1;1;2;1;1;1;BlockProcFischi;BlockList;1;75;0;;-999999;32;56853;0;1;1029;57882;1;1;1;1;ProcFischi1;ListBlockFischi;5;1;1;0;0;5;Po2_B;225;4;ug;5;2;59;1;5;4;1;TrialProc;1622;1582;Po2_B;227;1582;1809;ListFischi1;0;;2;203;93462;10;155;1802;95264;298;1;1610;1;656;421;1312;1;1
TMS_Ibrahim;51;3;"<?xml version=""1.0""?>\n<Clock xmlns:dt=""urn:schemas-microsoft-com:datatypes""><Description dt:dt=""string"">E-Prime Primary Realtime Clock</Description><StartTime><Timestamp dt:dt=""int"">0</Timestamp><DateUtc dt:dt=""string"">2023-04-04T15:50:09Z</DateUtc></StartTime><FrequencyChanges><FrequencyChange><Frequency dt:dt=""r8"">3312890</Frequency><Timestamp dt:dt=""r8"">35356145367</Timestamp><Current dt:dt=""r8"">0</Current><DateUtc dt:dt=""string"">2023-04-04T15:50:09Z</DateUtc></FrequencyChange></FrequencyChanges></Clock>\n";TMS_Ibrahim-51-3;75.029;1.0.0.561;1;;997053222;2.0.10.242;2.0.10.242;04/04/2023;04/04/2023 15:50;17:50:09;2.0.10.147;0;;-999999;50;53809;0;1;1197;55006;1;1;1;2;1;1;1;BlockProcFischi;BlockList;1;75;0;;-999999;32;56853;0;1;1029;57882;1;1;1;1;ProcFischi1;ListBlockFischi;6;1;1;0;0;3;Po5_B;225;2;op;3;2;41;1;6;2;0;TrialProc;1770;982;Po5_B;245;1719;1475;ListFischi1;0;;2;203;102046;9;13;1746;103792;402;1;1746;1;1322;286;1344;1;1
TMS_Ibrahim;51;3;"<?xml version=""1.0""?>\n<Clock xmlns:dt=""urn:schemas-microsoft-com:datatypes""><Description dt:dt=""string"">E-Prime Primary Realtime Clock</Description><StartTime><Timestamp dt:dt=""int"">0</Timestamp><DateUtc dt:dt=""string"">2023-04-04T15:50:09Z</DateUtc></StartTime><FrequencyChanges><FrequencyChange><Frequency dt:dt=""r8"">3312890</Frequency><Timestamp dt:dt=""r8"">35356145367</Timestamp><Current dt:dt=""r8"">0</Current><DateUtc dt:dt=""string"">2023-04-04T15:50:09Z</DateUtc></FrequencyChange></FrequencyChanges></Clock>\n";TMS_Ibrahim-51-3;75.029;1.0.0.561;1;;997053222;2.0.10.242;2.0.10.242;04/04/2023;04/04/2023 15:50;17:50:09;2.0.10.147;0;;-999999;50;53809;0;1;1197;55006;1;1;1;2;1;1;1;BlockProcFischi;BlockList;1;75;0;;-999999;32;56853;0;1;1029;57882;1;1;1;1;ProcFischi1;ListBlockFischi;7;1;1;0;0;3;Po5_B;225;2;op;3;2;46;1;7;2;0;TrialProc;2173;983;Po5_B;126;1350;1475;ListFischi1;0;;2;203;111015;10;133;2136;113151;376;1;1384;1;1398;338;1008;1;1
TMS_Ibrahim;51;3;"<?xml version=""1.0""?>\n<Clock xmlns:dt=""urn:schemas-microsoft-com:datatypes""><Description dt:dt=""string"">E-Prime Primary Realtime Clock</Description><StartTime><Timestamp dt:dt=""int"">0</Timestamp><DateUtc dt:dt=""string"">2023-04-04T15:50:09Z</DateUtc></StartTime><FrequencyChanges><FrequencyChange><Frequency dt:dt=""r8"">3312890</Frequency><Timestamp dt:dt=""r8"">35356145367</Timestamp><Current dt:dt=""r8"">0</Current><DateUtc dt:dt=""string"">2023-04-04T15:50:09Z</DateUtc></FrequencyChange></FrequencyChanges></Clock>\n";TMS_Ibrahim-51-3;75.029;1.0.0.561;1;;997053222;2.0.10.242;2.0.10.242;04/04/2023;04/04/2023 15:50;17:50:09;2.0.10.147;0;;-999999;50;53809;0;1;1197;55006;1;1;1;2;1;1;1;BlockProcFischi;BlockList;1;75;0;;-999999;32;56853;0;1;1029;57882;1;1;1;1;ProcFischi1;ListBlockFischi;8;1;1;0;0;5;Po3_B;225;4;ug;5;2;55;1;8;4;1;TrialProc;4341;1315;Po3_B;216;1367;1583;ListFischi1;0;;2;203;119545;10;15;1398;120943;358;1;1398;1;1378;517;1040;1;1
TMS_Ibrahim;51;3;"<?xml version=""1.0""?>\n<Clock xmlns:dt=""urn:schemas-microsoft-com:datatypes""><Description dt:dt=""string"">E-Prime Primary Realtime Clock</Description><StartTime><Timestamp dt:dt=""int"">0</Timestamp><DateUtc dt:dt=""string"">2023-04-04T15:50:09Z</DateUtc></StartTime><FrequencyChanges><FrequencyChange><Frequency dt:dt=""r8"">3312890</Frequency><Timestamp dt:dt=""r8"">35356145367</Timestamp><Current dt:dt=""r8"">0</Current><DateUtc dt:dt=""string"">2023-04-04T15:50:09Z</DateUtc></FrequencyChange></FrequencyChanges></Clock>\n";TMS_Ibrahim-51-3;75.029;1.0.0.561;1;;997053222;2.0.10.242;2.0.10.242;04/04/2023;04/04/2023 15:50;17:50:09;2.0.10.147;0;;-999999;50;53809;0;1;1197;55006;1;1;1;2;1;1;1;BlockProcFischi;BlockList;1;75;0;;-999999;32;56853;0;1;1029;57882;1;1;1;1;ProcFischi1;ListBlockFischi;9;1;1;0;0;3;Po5_B;200;2;op;3;2;36;1;9;2;0;TrialProc;2953;983;Po5_B;55;1420;1476;ListFischi1;0;;2;203;130421;10;13;1450;131871;364;1;1450;1;701;535;1086;1;1
TMS_Ibrahim;51;3;"<?xml version=""1.0""?>\n<Clock xmlns:dt=""urn:schemas-microsoft-com:datatypes""><Description dt:dt=""string"">E-Prime Primary Realtime Clock</Description><StartTime><Timestamp dt:dt=""int"">0</Timestamp><DateUtc dt:dt=""string"">2023-04-04T15:50:09Z</DateUtc></StartTime><FrequencyChanges><FrequencyChange><Frequency dt:dt=""r8"">3312890</Frequency><Timestamp dt:dt=""r8"">35356145367</Timestamp><Current dt:dt=""r8"">0</Current><DateUtc dt:dt=""string"">2023-04-04T15:50:09Z</DateUtc></FrequencyChange></FrequencyChanges></Clock>\n";TMS_Ibrahim-51-3;75.029;1.0.0.561;1;;997053222;2.0.10.242;2.0.10.242;04/04/2023;04/04/2023 15:50;17:50:09;2.0.10.147;0;;-999999;50;53809;0;1;1197;55006;1;1;1;2;1;1;1;BlockProcFischi;BlockList;1;75;0;;-999999;32;56853;0;1;1029;57882;1;1;1;1;ProcFischi1;ListBlockFischi;10;1;2;0;0;5;Pr2_B;225;1;op;5;2;1;1;10;1;0;TrialProc;2194;716;Pr2_B;9;1257;1248;ListFischi1;0;;2;203;139526;8;15;1288;140814;296;1;1288;1;778;361;992;1;1
TMS_Ibrahim;51;3;"<?xml version=""1.0""?>\n<Clock xmlns:dt=""urn:schemas-microsoft-com:datatypes""><Description dt:dt=""string"">E-Prime Primary Realtime Clock</Description><StartTime><Timestamp dt:dt=""int"">0</Timestamp><DateUtc dt:dt=""string"">2023-04-04T15:50:09Z</DateUtc></StartTime><FrequencyChanges><FrequencyChange><Frequency dt:dt=""r8"">3312890</Frequency><Timestamp dt:dt=""r8"">35356145367</Timestamp><Current dt:dt=""r8"">0</Current><DateUtc dt:dt=""string"">2023-04-04T15:50:09Z</DateUtc></FrequencyChange></FrequencyChanges></Clock>\n";TMS_Ibrahim-51-3;75.029;1.0.0.561;1;;997053222;2.0.10.242;2.0.10.242;04/04/2023;04/04/2023 15:50;17:50:09;2.0.10.147;0;;-999999;50;53809;0;1;1197;55006;1;1;1;2;1;1;1;BlockProcFischi;BlockList;1;75;0;;-999999;32;56853;0;1;1029;57882;1;1;1;1;ProcFischi1;ListBlockFischi;11;1;2;0;0;3;Pr2_B;225;3;ug;3;2;17;1;11;3;1;TrialProc;3505;724;Pr2_B;64;1192;1256;ListFischi1;0;;2;201;146596;15;13;1226;147822;346;1;1226;1;669;442;880;1;1
TMS_Ibrahim;51;3;"<?xml version=""1.0""?>\n<Clock xmlns:dt=""urn:schemas-microsoft-com:datatypes""><Description dt:dt=""string"">E-Prime Primary Realtime Clock</Description><StartTime><Timestamp dt:dt=""int"">0</Timestamp><DateUtc dt:dt=""string"">2023-04-04T15:50:09Z</DateUtc></StartTime><FrequencyChanges><FrequencyChange><Frequency dt:dt=""r8"">3312890</Frequency><Timestamp dt:dt=""r8"">35356145367</Timestamp><Current dt:dt=""r8"">0</Current><DateUtc dt:dt=""string"">2023-04-04T15:50:09Z</DateUtc></FrequencyChange></FrequencyChanges></Clock>\n";TMS_Ibrahim-51-3;75.029;1.0.0.561;1;;997053222;2.0.10.242;2.0.10.242;04/04/2023;04/04/2023 15:50;17:50:09;2.0.10.147;0;;-999999;50;53809;0;1;1197;55006;1;1;1;2;1;1;1;BlockProcFischi;BlockList;1;75;0;;-999999;32;56853;0;1;1029;57882;1;1;1;1;ProcFischi1;ListBlockFischi;12;1;1;0;0;5;Po2_B;225;4;ug;5;2;49;1;12;4;1;TrialProc;2726;1586;Po2_B;429;1382;1811;ListFischi1;0;;2;203;155395;12;15;1402;156797;363;1;1402;1;533;471;1039;1;1
TMS_Ibrahim;51;3;"<?xml version=""1.0""?>\n<Clock xmlns:dt=""urn:schemas-microsoft-com:datatypes""><Description dt:dt=""string"">E-Prime Primary Realtime Clock</Description><StartTime><Timestamp dt:dt=""int"">0</Timestamp><DateUtc dt:dt=""string"">2023-04-04T15:50:09Z</DateUtc></StartTime><FrequencyChanges><FrequencyChange><Frequency dt:dt=""r8"">3312890</Frequency><Timestamp dt:dt=""r8"">35356145367</Timestamp><Current dt:dt=""r8"">0</Current><DateUtc dt:dt=""string"">2023-04-04T15:50:09Z</DateUtc></FrequencyChange></FrequencyChanges></Clock>\n";TMS_Ibrahim-51-3;75.029;1.0.0.561;1;;997053222;2.0.10.242;2.0.10.242;04/04/2023;04/04/2023 15:50;17:50:09;2.0.10.147;0;;-999999;50;53809;0;1;1197;55006;1;1;1;2;1;1;1;BlockProcFischi;BlockList;1;75;0;;-999999;32;56853;0;1;1029;57882;1;1;1;1;ProcFischi1;ListBlockFischi;13;1;1;0;1;5;Po3_B;225;4;ug;5;2;50;1;13;4;1;TrialProc;2514;1314;Po3_B;319;1262;1581;ListFischi1;0;;2;203;164422;8;15;1287;165709;313;1;1287;1;918;424;974;1;1
TMS_Ibrahim;51;3;"<?xml version=""1.0""?>\n<Clock xmlns:dt=""urn:schemas-microsoft-com:datatypes""><Description dt:dt=""string"">E-Prime Primary Realtime Clock</Description><StartTime><Timestamp dt:dt=""int"">0</Timestamp><DateUtc dt:dt=""string"">2023-04-04T15:50:09Z</DateUtc></StartTime><FrequencyChanges><FrequencyChange><Frequency dt:dt=""r8"">3312890</Frequency><Timestamp dt:dt=""r8"">35356145367</Timestamp><Current dt:dt=""r8"">0</Current><DateUtc dt:dt=""string"">2023-04-04T15:50:09Z</DateUtc></FrequencyChange></FrequencyChanges></Clock>\n";TMS_Ibrahim-51-3;75.029;1.0.0.561;1;;997053222;2.0.10.242;2.0.10.242;04/04/2023;04/04/2023 15:50;17:50:09;2.0.10.147;0;;-999999;50;53809;0;1;1197;55006;1;1;1;2;1;1;1;BlockProcFischi;BlockList;1;75;0;;-999999;32;56853;0;1;1029;57882;1;1;1;1;ProcFischi1;ListBlockFischi;14;1;1;0;0;3;Po2_B;175;2;op;3;2;43;1;14;2;0;TrialProc;1517;1588;Po2_B;434;1379;1814;ListFischi1;0;;2;201;171947;14;13;1410;173357;338;1;1410;1;729;592;1072;1;1
TMS_Ibrahim;51;3;"<?xml version=""1.0""?>\n<Clock xmlns:dt=""urn:schemas-microsoft-com:datatypes""><Description dt:dt=""string"">E-Prime Primary Realtime Clock</Description><StartTime><Timestamp dt:dt=""int"">0</Timestamp><DateUtc dt:dt=""string"">2023-04-04T15:50:09Z</DateUtc></StartTime><FrequencyChanges><FrequencyChange><Frequency dt:dt=""r8"">3312890</Frequency><Timestamp dt:dt=""r8"">35356145367</Timestamp><Current dt:dt=""r8"">0</Current><DateUtc dt:dt=""string"">2023-04-04T15:50:09Z</DateUtc></FrequencyChange></FrequencyChanges></Clock>\n";TMS_Ibrahim-51-3;75.029;1.0.0.561;1;;997053222;2.0.10.242;2.0.10.242;04/04/2023;04/04/2023 15:50;17:50:09;2.0.10.147;0;;-999999;50;53809;0;1;1197;55006;1;1;1;2;1;1;1;BlockProcFischi;BlockList;1;75;0;;-999999;32;56853;0;1;1029;57882;1;1;1;1;ProcFischi1;ListBlockFischi;15;1;1;0;1;3;Po4_B;175;2;op;3;2;35;1;15;2;0;TrialProc;2585;1343;Po4_B;343;1374;1717;ListFischi1;0;;2;203;179841;10;13;1404;181245;380;1;1404;1;297;512;1024;1;1
TMS_Ibrahim;51;3;"<?xml version=""1.0""?>\n<Clock xmlns:dt=""urn:schemas-microsoft-com:datatypes""><Description dt:dt=""string"">E-Prime Primary Realtime Clock</Description><StartTime><Timestamp dt:dt=""int"">0</Timestamp><DateUtc dt:dt=""string"">2023-04-04T15:50:09Z</DateUtc></StartTime><FrequencyChanges><FrequencyChange><Frequency dt:dt=""r8"">3312890</Frequency><Timestamp dt:dt=""r8"">35356145367</Timestamp><Current dt:dt=""r8"">0</Current><DateUtc dt:dt=""string"">2023-04-04T15:50:09Z</DateUtc></FrequencyChange></FrequencyChanges></Clock>\n";TMS_Ibrahim-51-3;75.029;1.0.0.561;1;;997053222;2.0.10.242;2.0.10.242;04/04/2023;04/04/2023 15:50;17:50:09;2.0.10.147;0;;-999999;50;53809;0;1;1197;55006;1;1;1;2;1;1;1;BlockProcFischi;BlockList;1;75;0;;-999999;32;56853;0;1;1029;57882;1;1;1;1;ProcFischi1;ListBlockFischi;16;1;1;0;2;3;Po4_B;175;2;op;3;2;40;1;16;2;0;TrialProc;1021;1341;Po4_B;343;1372;1714;ListFischi1;0;;2;203;188586;8;13;1394;189980;242;1;1394;1;372;599;1152;1;1
TMS_Ibrahim;51;3;"<?xml version=""1.0""?>\n<Clock xmlns:dt=""urn:schemas-microsoft-com:datatypes""><Description dt:dt=""string"">E-Prime Primary Realtime Clock</Description><StartTime><Timestamp dt:dt=""int"">0</Timestamp><DateUtc dt:dt=""string"">2023-04-04T15:50:09Z</DateUtc></StartTime><FrequencyChanges><FrequencyChange><Frequency dt:dt=""r8"">3312890</Frequency><Timestamp dt:dt=""r8"">35356145367</Timestamp><Current dt:dt=""r8"">0</Current><DateUtc dt:dt=""string"">2023-04-04T15:50:09Z</DateUtc></FrequencyChange></FrequencyChanges></Clock>\n";TMS_Ibrahim-51-3;75.029;1.0.0.561;1;;997053222;2.0.10.242;2.0.10.242;04/04/2023;04/04/2023 15:50;17:50:09;2.0.10.147;0;;-999999;50;53809;0;1;1197;55006;1;1;1;2;1;1;1;BlockProcFischi;BlockList;1;75;0;;-999999;32;56853;0;1;1029;57882;1;1;1;1;ProcFischi1;ListBlockFischi;17;1;1;0;2;5;Po4_B;225;4;ug;5;2;51;1;17;4;1;TrialProc;2225;1340;Po4_B;329;1385;1714;ListFischi1;0;;2;203;197542;9;15;1414;198956;438;1;1414;1;421;501;976;1;1
TMS_Ibrahim;51;3;"<?xml version=""1.0""?>\n<Clock xmlns:dt=""urn:schemas-microsoft-com:datatypes""><Description dt:dt=""string"">E-Prime Primary Realtime Clock</Description><StartTime><Timestamp dt:dt=""int"">0</Timestamp><DateUtc dt:dt=""string"">2023-04-04T15:50:09Z</DateUtc></StartTime><FrequencyChanges><FrequencyChange><Frequency dt:dt=""r8"">3312890</Frequency><Timestamp dt:dt=""r8"">35356145367</Timestamp><Current dt:dt=""r8"">0</Current><DateUtc dt:dt=""string"">2023-04-04T15:50:09Z</DateUtc></FrequencyChange></FrequencyChanges></Clock>\n";TMS_Ibrahim-51-3;75.029;1.0.0.561;1;;997053222;2.0.10.242;2.0.10.242;04/04/2023;04/04/2023 15:50;17:50:09;2.0.10.147;0;;-999999;50;53809;0;1;1197;55006;1;1;1;2;1;1;1;BlockProcFischi;BlockList;1;75;0;;-999999;32;56853;0;1;1029;57882;1;1;1;1;ProcFischi1;ListBlockFischi;18;1;2;0;0;5;Pr4_B;200;1;op;5;2;3;1;18;1;0;TrialProc;2819;676;Pr4_B;100;1349;1249;ListFischi1;0;;2;203;206219;8;15;1377;207596;353;1;1377;1;605;586;1024;1;1
TMS_Ibrahim;51;3;"<?xml version=""1.0""?>\n<Clock xmlns:dt=""urn:schemas-microsoft-com:datatypes""><Description dt:dt=""string"">E-Prime Primary Realtime Clock</Description><StartTime><Timestamp dt:dt=""int"">0</Timestamp><DateUtc dt:dt=""string"">2023-04-04T15:50:09Z</DateUtc></StartTime><FrequencyChanges><FrequencyChange><Frequency dt:dt=""r8"">3312890</Frequency><Timestamp dt:dt=""r8"">35356145367</Timestamp><Current dt:dt=""r8"">0</Current><DateUtc dt:dt=""string"">2023-04-04T15:50:09Z</DateUtc></FrequencyChange></FrequencyChanges></Clock>\n";TMS_Ibrahim-51-3;75.029;1.0.0.561;1;;997053222;2.0.10.242;2.0.10.242;04/04/2023;04/04/2023 15:50;17:50:09;2.0.10.147;0;;-999999;50;53809;0;1;1197;55006;1;1;1;2;1;1;1;BlockProcFischi;BlockList;1;75;0;;-999999;32;56853;0;1;1029;57882;1;1;1;1;ProcFischi1;ListBlockFischi;19;1;1;0;0;5;Po5_B;250;4;ug;5;2;57;1;19;4;1;TrialProc;4237;982;Po5_B;140;1335;1475;ListFischi1;0;;2;203;214283;8;15;1360;215643;272;1;1360;1;372;211;1088;1;1
TMS_Ibrahim;51;3;"<?xml version=""1.0""?>\n<Clock xmlns:dt=""urn:schemas-microsoft-com:datatypes""><Description dt:dt=""string"">E-Prime Primary Realtime Clock</Description><StartTime><Timestamp dt:dt=""int"">0</Timestamp><DateUtc dt:dt=""string"">2023-04-04T15:50:09Z</DateUtc></StartTime><FrequencyChanges><FrequencyChange><Frequency dt:dt=""r8"">3312890</Frequency><Timestamp dt:dt=""r8"">35356145367</Timestamp><Current dt:dt=""r8"">0</Current><DateUtc dt:dt=""string"">2023-04-04T15:50:09Z</DateUtc></FrequencyChange></FrequencyChanges></Clock>\n";TMS_Ibrahim-51-3;75.029;1.0.0.561;1;;997053222;2.0.10.242;2.0.10.242;04/04/2023;04/04/2023 15:50;17:50:09;2.0.10.147;0;;-999999;50;53809;0;1;1197;55006;1;1;1;2;1;1;1;BlockProcFischi;BlockList;1;75;0;;-999999;32;56853;0;1;1029;57882;1;1;1;1;ProcFischi1;ListBlockFischi;20;1;1;0;0;5;Po8_B;225;4;ug;5;2;58;1;20;4;1;TrialProc;998;1250;Po8_B;93;1490;1582;ListFischi1;0;;2;203;223904;10;15;1515;225419;428;1;1515;1;982;214;1087;1;1
TMS_Ibrahim;51;3;"<?xml version=""1.0""?>\n<Clock xmlns:dt=""urn:schemas-microsoft-com:datatypes""><Description dt:dt=""string"">E-Prime Primary Realtime Clock</Description><StartTime><Timestamp dt:dt=""int"">0</Timestamp><DateUtc dt:dt=""string"">2023-04-04T15:50:09Z</DateUtc></StartTime><FrequencyChanges><FrequencyChange><Frequency dt:dt=""r8"">3312890</Frequency><Timestamp dt:dt=""r8"">35356145367</Timestamp><Current dt:dt=""r8"">0</Current><DateUtc dt:dt=""string"">2023-04-04T15:50:09Z</DateUtc></FrequencyChange></FrequencyChanges></Clock>\n";TMS_Ibrahim-51-3;75.029;1.0.0.561;1;;997053222;2.0.10.242;2.0.10.242;04/04/2023;04/04/2023 15:50;17:50:09;2.0.10.147;0;;-999999;50;53809;0;1;1197;55006;1;1;1;2;1;1;1;BlockProcFischi;BlockList;1;75;0;;-999999;32;56853;0;1;1029;57882;1;1;1;1;ProcFischi1;ListBlockFischi;21;1;2;0;0;3;Pr3_B;200;3;ug;3;2;28;1;21;3;1;TrialProc;2747;716;Pr3_B;235;1482;1717;ListFischi1;0;;2;203;232287;10;13;1532;233819;572;1;1532;1;620;335;960;1;1
TMS_Ibrahim;51;3;"<?xml version=""1.0""?>\n<Clock xmlns:dt=""urn:schemas-microsoft-com:datatypes""><Description dt:dt=""string"">E-Prime Primary Realtime Clock</Description><StartTime><Timestamp dt:dt=""int"">0</Timestamp><DateUtc dt:dt=""string"">2023-04-04T15:50:09Z</DateUtc></StartTime><FrequencyChanges><FrequencyChange><Frequency dt:dt=""r8"">3312890</Frequency><Timestamp dt:dt=""r8"">35356145367</Timestamp><Current dt:dt=""r8"">0</Current><DateUtc dt:dt=""string"">2023-04-04T15:50:09Z</DateUtc></FrequencyChange></FrequencyChanges></Clock>\n";TMS_Ibrahim-51-3;75.029;1.0.0.561;1;;997053222;2.0.10.242;2.0.10.242;04/04/2023;04/04/2023 15:50;17:50:09;2.0.10.147;0;;-999999;50;53809;0;1;1197;55006;1;1;1;2;1;1;1;BlockProcFischi;BlockList;1;75;0;;-999999;32;56853;0;1;1029;57882;1;1;1;1;ProcFischi1;ListBlockFischi;22;1;2;0;0;5;Pr2_B;175;1;op;5;2;6;1;22;1;0;TrialProc;3600;715;Pr2_B;86;1333;1247;ListFischi1;0;;2;203;240206;8;15;1356;241562;348;1;1356;1;1222;473;1008;1;1
TMS_Ibrahim;51;3;"<?xml version=""1.0""?>\n<Clock xmlns:dt=""urn:schemas-microsoft-com:datatypes""><Description dt:dt=""string"">E-Prime Primary Realtime Clock</Description><StartTime><Timestamp dt:dt=""int"">0</Timestamp><DateUtc dt:dt=""string"">2023-04-04T15:50:09Z</DateUtc></StartTime><FrequencyChanges><FrequencyChange><Frequency dt:dt=""r8"">3312890</Frequency><Timestamp dt:dt=""r8"">35356145367</Timestamp><Current dt:dt=""r8"">0</Current><DateUtc dt:dt=""string"">2023-04-04T15:50:09Z</DateUtc></FrequencyChange></FrequencyChanges></Clock>\n";TMS_Ibrahim-51-3;75.029;1.0.0.561;1;;997053222;2.0.10.242;2.0.10.242;04/04/2023;04/04/2023 15:50;17:50:09;2.0.10.147;0;;-999999;50;53809;0;1;1197;55006;1;1;1;2;1;1;1;BlockProcFischi;BlockList;1;75;0;;-999999;32;56853;0;1;1029;57882;1;1;1;1;ProcFischi1;ListBlockFischi;23;1;1;0;0;3;Po8_B;200;2;op;3;2;37;1;23;2;0;TrialProc;4466;1252;Po8_B;34;1550;1584;ListFischi1;0;;2;203;248852;12;13;1574;250426;311;1;1574;1;925;414;1263;1;1
TMS_Ibrahim;51;3;"<?xml version=""1.0""?>\n<Clock xmlns:dt=""urn:schemas-microsoft-com:datatypes""><Description dt:dt=""string"">E-Prime Primary Realtime Clock</Description><StartTime><Timestamp dt:dt=""int"">0</Timestamp><DateUtc dt:dt=""string"">2023-04-04T15:50:09Z</DateUtc></StartTime><FrequencyChanges><FrequencyChange><Frequency dt:dt=""r8"">3312890</Frequency><Timestamp dt:dt=""r8"">35356145367</Timestamp><Current dt:dt=""r8"">0</Current><DateUtc dt:dt=""string"">2023-04-04T15:50:09Z</DateUtc></FrequencyChange></FrequencyChanges></Clock>\n";TMS_Ibrahim-51-3;75.029;1.0.0.561;1;;997053222;2.0.10.242;2.0.10.242;04/04/2023;04/04/2023 15:50;17:50:09;2.0.10.147;0;;-999999;50;53809;0;1;1197;55006;1;1;1;2;1;1;1;BlockProcFischi;BlockList;1;75;0;;-999999;32;56853;0;1;1029;57882;1;1;1;1;ProcFischi1;ListBlockFischi;24;1;2;0;0;5;Pr5_B;150;1;op;5;2;4;1;24;1;0;TrialProc;3169;673;Pr5_B;239;1511;1273;ListFischi1;0;;2;203;258878;8;15;1532;260410;332;1;1532;1;995;357;1200;1;1
TMS_Ibrahim;51;3;"<?xml version=""1.0""?>\n<Clock xmlns:dt=""urn:schemas-microsoft-com:datatypes""><Description dt:dt=""string"">E-Prime Primary Realtime Clock</Description><StartTime><Timestamp dt:dt=""int"">0</Timestamp><DateUtc dt:dt=""string"">2023-04-04T15:50:09Z</DateUtc></StartTime><FrequencyChanges><FrequencyChange><Frequency dt:dt=""r8"">3312890</Frequency><Timestamp dt:dt=""r8"">35356145367</Timestamp><Current dt:dt=""r8"">0</Current><DateUtc dt:dt=""string"">2023-04-04T15:50:09Z</DateUtc></FrequencyChange></FrequencyChanges></Clock>\n";TMS_Ibrahim-51-3;75.029;1.0.0.561;1;;997053222;2.0.10.242;2.0.10.242;04/04/2023;04/04/2023 15:50;17:50:09;2.0.10.147;0;;-999999;50;53809;0;1;1197;55006;1;1;1;2;1;1;1;BlockProcFischi;BlockList;1;75;0;;-999999;32;56853;0;1;1029;57882;1;1;1;1;ProcFischi1;ListBlockFischi;25;1;1;1;0;3;Pomod_B;175;2;op;3;2;48;1;25;2;0;TrialProc;1567;1316;Pomod_B;140;1815;1676;ListFischi1;0;;2;203;267367;9;13;1842;269209;418;1;1842;1;2405;474;1424;1;1
TMS_Ibrahim;51;3;"<?xml version=""1.0""?>\n<Clock xmlns:dt=""urn:schemas-microsoft-com:datatypes""><Description dt:dt=""string"">E-Prime Primary Realtime Clock</Description><StartTime><Timestamp dt:dt=""int"">0</Timestamp><DateUtc dt:dt=""string"">2023-04-04T15:50:09Z</DateUtc></StartTime><FrequencyChanges><FrequencyChange><Frequency dt:dt=""r8"">3312890</Frequency><Timestamp dt:dt=""r8"">35356145367</Timestamp><Current dt:dt=""r8"">0</Current><DateUtc dt:dt=""string"">2023-04-04T15:50:09Z</DateUtc></FrequencyChange></FrequencyChanges></Clock>\n";TMS_Ibrahim-51-3;75.029;1.0.0.561;1;;997053222;2.0.10.242;2.0.10.242;04/04/2023;04/04/2023 15:50;17:50:09;2.0.10.147;0;;-999999;50;53809;0;1;1197;55006;1;1;1;2;1;1;1;BlockProcFischi;BlockList;1;75;0;;-999999;32;56853;0;1;1029;57882;1;1;1;1;ProcFischi1;ListBlockFischi;26;1;2;0;1;3;Pr2_B;200;3;ug;3;2;22;1;26;3;1;TrialProc;1149;719;Pr2_B;93;1343;1251;ListFischi1;0;;2;201;274589;11;13;1372;275961;332;1;1372;1;726;534;1040;1;1
TMS_Ibrahim;51;3;"<?xml version=""1.0""?>\n<Clock xmlns:dt=""urn:schemas-microsoft-com:datatypes""><Description dt:dt=""string"">E-Prime Primary Realtime Clock</Description><StartTime><Timestamp dt:dt=""int"">0</Timestamp><DateUtc dt:dt=""string"">2023-04-04T15:50:09Z</DateUtc></StartTime><FrequencyChanges><FrequencyChange><Frequency dt:dt=""r8"">3312890</Frequency><Timestamp dt:dt=""r8"">35356145367</Timestamp><Current dt:dt=""r8"">0</Current><DateUtc dt:dt=""string"">2023-04-04T15:50:09Z</DateUtc></FrequencyChange></FrequencyChanges></Clock>\n";TMS_Ibrahim-51-3;75.029;1.0.0.561;1;;997053222;2.0.10.242;2.0.10.242;04/04/2023;04/04/2023 15:50;17:50:09;2.0.10.147;0;;-999999;50;53809;0;1;1197;55006;1;1;1;2;1;1;1;BlockProcFischi;BlockList;1;75;0;;-999999;32;56853;0;1;1029;57882;1;1;1;1;ProcFischi1;ListBlockFischi;27;1;2;0;1;5;Pr4_B;150;1;op;5;2;8;1;27;1;0;TrialProc;1750;677;Pr4_B;60;1309;1250;ListFischi1;0;;2;203;282094;10;15;1339;283433;363;1;1339;1;1231;297;976;1;1
TMS_Ibrahim;51;3;"<?xml version=""1.0""?>\n<Clock xmlns:dt=""urn:schemas-microsoft-com:datatypes""><Description dt:dt=""string"">E-Prime Primary Realtime Clock</Description><StartTime><Timestamp dt:dt=""int"">0</Timestamp><DateUtc dt:dt=""string"">2023-04-04T15:50:09Z</DateUtc></StartTime><FrequencyChanges><FrequencyChange><Frequency dt:dt=""r8"">3312890</Frequency><Timestamp dt:dt=""r8"">35356145367</Timestamp><Current dt:dt=""r8"">0</Current><DateUtc dt:dt=""string"">2023-04-04T15:50:09Z</DateUtc></FrequencyChange></FrequencyChanges></Clock>\n";TMS_Ibrahim-51-3;75.029;1.0.0.561;1;;997053222;2.0.10.242;2.0.10.242;04/04/2023;04/04/2023 15:50;17:50:09;2.0.10.147;0;;-999999;50;53809;0;1;1197;55006;1;1;1;2;1;1;1;BlockProcFischi;BlockList;1;75;0;;-999999;32;56853;0;1;1029;57882;1;1;1;1;ProcFischi1;ListBlockFischi;28;1;2;0;0;3;Pr8_B;175;3;ug;3;2;26;1;28;3;1;TrialProc;2177;719;Pr8_B;20;1724;1744;ListFischi1;0;;2;203;290729;12;13;1759;292488;543;1;1759;1;1016;324;1216;1;1
TMS_Ibrahim;51;3;"<?xml version=""1.0""?>\n<Clock xmlns:dt=""urn:schemas-microsoft-com:datatypes""><Description dt:dt=""string"">E-Prime Primary Realtime Clock</Description><StartTime><Timestamp dt:dt=""int"">0</Timestamp><DateUtc dt:dt=""string"">2023-04-04T15:50:09Z</DateUtc></StartTime><FrequencyChanges><FrequencyChange><Frequency dt:dt=""r8"">3312890</Frequency><Timestamp dt:dt=""r8"">35356145367</Timestamp><Current dt:dt=""r8"">0</Current><DateUtc dt:dt=""string"">2023-04-04T15:50:09Z</DateUtc></FrequencyChange></FrequencyChanges></Clock>\n";TMS_Ibrahim-51-3;75.029;1.0.0.561;1;;997053222;2.0.10.242;2.0.10.242;04/04/2023;04/04/2023 15:50;17:50:09;2.0.10.147;0;;-999999;50;53809;0;1;1197;55006;1;1;1;2;1;1;1;BlockProcFischi;BlockList;1;75;0;;-999999;32;56853;0;1;1029;57882;1;1;1;1;ProcFischi1;ListBlockFischi;29;1;2;0;0;5;Pr3_B;125;1;op;5;2;7;1;29;1;0;TrialProc;1578;714;Pr3_B;149;1566;1715;ListFischi1;0;;2;203;299129;8;15;1599;300728;463;1;1599;1;1290;414;1136;1;1
TMS_Ibrahim;51;3;"<?xml version=""1.0""?>\n<Clock xmlns:dt=""urn:schemas-microsoft-com:datatypes""><Description dt:dt=""string"">E-Prime Primary Realtime Clock</Description><StartTime><Timestamp dt:dt=""int"">0</Timestamp><DateUtc dt:dt=""string"">2023-04-04T15:50:09Z</DateUtc></StartTime><FrequencyChanges><FrequencyChange><Frequency dt:dt=""r8"">3312890</Frequency><Timestamp dt:dt=""r8"">35356145367</Timestamp><Current dt:dt=""r8"">0</Current><DateUtc dt:dt=""string"">2023-04-04T15:50:09Z</DateUtc></FrequencyChange></FrequencyChanges></Clock>\n";TMS_Ibrahim-51-3;75.029;1.0.0.561;1;;997053222;2.0.10.242;2.0.10.242;04/04/2023;04/04/2023 15:50;17:50:09;2.0.10.147;0;;-999999;50;53809;0;1;1197;55006;1;1;1;2;1;1;1;BlockProcFischi;BlockList;1;75;0;;-999999;32;56853;0;1;1029;57882;1;1;1;1;ProcFischi1;ListBlockFischi;30;1;2;0;0;3;Pr4_B;150;3;ug;3;2;19;1;30;3;1;TrialProc;2172;682;Pr4_B;272;1527;1255;ListFischi1;0;;2;203;308078;16;13;1546;309624;458;1;1546;1;2059;292;1088;1;1
TMS_Ibrahim;51;3;"<?xml version=""1.0""?>\n<Clock xmlns:dt=""urn:schemas-microsoft-com:datatypes""><Description dt:dt=""string"">E-Prime Primary Realtime Clock</Description><StartTime><Timestamp dt:dt=""int"">0</Timestamp><DateUtc dt:dt=""string"">2023-04-04T15:50:09Z</DateUtc></StartTime><FrequencyChanges><FrequencyChange><Frequency dt:dt=""r8"">3312890</Frequency><Timestamp dt:dt=""r8"">35356145367</Timestamp><Current dt:dt=""r8"">0</Current><DateUtc dt:dt=""string"">2023-04-04T15:50:09Z</DateUtc></FrequencyChange></FrequencyChanges></Clock>\n";TMS_Ibrahim-51-3;75.029;1.0.0.561;1;;997053222;2.0.10.242;2.0.10.242;04/04/2023;04/04/2023 15:50;17:50:09;2.0.10.147;0;;-999999;50;53809;0;1;1197;55006;1;1;1;2;1;1;1;BlockProcFischi;BlockList;1;75;0;;-999999;32;56853;0;1;1029;57882;1;1;1;1;ProcFischi1;ListBlockFischi;31;1;2;0;0;5;Pr3_B;125;1;op;5;2;12;1;31;1;0;TrialProc;3645;717;Pr3_B;8;1723;1716;ListFischi1;0;;2;203;318361;9;155;2782;321143;416;1;1758;1;898;304;1342;1;1
TMS_Ibrahim;51;3;"<?xml version=""1.0""?>\n<Clock xmlns:dt=""urn:schemas-microsoft-com:datatypes""><Description dt:dt=""string"">E-Prime Primary Realtime Clock</Description><StartTime><Timestamp dt:dt=""int"">0</Timestamp><DateUtc dt:dt=""string"">2023-04-04T15:50:09Z</DateUtc></StartTime><FrequencyChanges><FrequencyChange><Frequency dt:dt=""r8"">3312890</Frequency><Timestamp dt:dt=""r8"">35356145367</Timestamp><Current dt:dt=""r8"">0</Current><DateUtc dt:dt=""string"">2023-04-04T15:50:09Z</DateUtc></FrequencyChange></FrequencyChanges></Clock>\n";TMS_Ibrahim-51-3;75.029;1.0.0.561;1;;997053222;2.0.10.242;2.0.10.242;04/04/2023;04/04/2023 15:50;17:50:09;2.0.10.147;0;;-999999;50;53809;0;1;1197;55006;1;1;1;2;1;1;1;BlockProcFischi;BlockList;1;75;0;;-999999;32;56853;0;1;1029;57882;1;1;1;1;ProcFischi1;ListBlockFischi;32;1;1;0;0;5;Po2_B;200;4;ug;5;2;54;1;32;4;1;TrialProc;1053;1588;Po2_B;237;1577;1815;ListFischi1;0;;2;201;326152;15;155;3231;329383;559;1;1599;1;1159;542;1040;1;1
TMS_Ibrahim;51;3;"<?xml version=""1.0""?>\n<Clock xmlns:dt=""urn:schemas-microsoft-com:datatypes""><Description dt:dt=""string"">E-Prime Primary Realtime Clock</Description><StartTime><Timestamp dt:dt=""int"">0</Timestamp><DateUtc dt:dt=""string"">2023-04-04T15:50:09Z</DateUtc></StartTime><FrequencyChanges><FrequencyChange><Frequency dt:dt=""r8"">3312890</Frequency><Timestamp dt:dt=""r8"">35356145367</Timestamp><Current dt:dt=""r8"">0</Current><DateUtc dt:dt=""string"">2023-04-04T15:50:09Z</DateUtc></FrequencyChange></FrequencyChanges></Clock>\n";TMS_Ibrahim-51-3;75.029;1.0.0.561;1;;997053222;2.0.10.242;2.0.10.242;04/04/2023;04/04/2023 15:50;17:50:09;2.0.10.147;0;;-999999;50;53809;0;1;1197;55006;1;1;1;2;1;1;1;BlockProcFischi;BlockList;1;75;0;;-999999;32;56853;0;1;1029;57882;1;1;1;1;ProcFischi1;ListBlockFischi;33;1;1;1;1;5;Pomod_B;200;4;ug;5;2;63;1;33;4;1;TrialProc;2776;1317;Pomod_B;75;1753;1678;ListFischi1;0;;2;201;333086;11;15;1785;334871;601;1;1785;1;1172;210;1184;1;1
TMS_Ibrahim;51;3;"<?xml version=""1.0""?>\n<Clock xmlns:dt=""urn:schemas-microsoft-com:datatypes""><Description dt:dt=""string"">E-Prime Primary Realtime Clock</Description><StartTime><Timestamp dt:dt=""int"">0</Timestamp><DateUtc dt:dt=""string"">2023-04-04T15:50:09Z</DateUtc></StartTime><FrequencyChanges><FrequencyChange><Frequency dt:dt=""r8"">3312890</Frequency><Timestamp dt:dt=""r8"">35356145367</Timestamp><Current dt:dt=""r8"">0</Current><DateUtc dt:dt=""string"">2023-04-04T15:50:09Z</DateUtc></FrequencyChange></FrequencyChanges></Clock>\n";TMS_Ibrahim-51-3;75.029;1.0.0.561;1;;997053222;2.0.10.242;2.0.10.242;04/04/2023;04/04/2023 15:50;17:50:09;2.0.10.147;0;;-999999;50;53809;0;1;1197;55006;1;1;1;2;1;1;1;BlockProcFischi;BlockList;1;75;0;;-999999;32;56853;0;1;1029;57882;1;1;1;1;ProcFischi1;ListBlockFischi;34;1;2;0;1;3;Pr2_B;150;3;ug;3;2;27;1;34;3;1;TrialProc;2556;717;Pr2_B;118;1369;1250;ListFischi1;0;;2;203;341684;10;13;1394;343078;403;1;1394;1;867;264;991;1;1
TMS_Ibrahim;51;3;"<?xml version=""1.0""?>\n<Clock xmlns:dt=""urn:schemas-microsoft-com:datatypes""><Description dt:dt=""string"">E-Prime Primary Realtime Clock</Description><StartTime><Timestamp dt:dt=""int"">0</Timestamp><DateUtc dt:dt=""string"">2023-04-04T15:50:09Z</DateUtc></StartTime><FrequencyChanges><FrequencyChange><Frequency dt:dt=""r8"">3312890</Frequency><Timestamp dt:dt=""r8"">35356145367</Timestamp><Current dt:dt=""r8"">0</Current><DateUtc dt:dt=""string"">2023-04-04T15:50:09Z</DateUtc></FrequencyChange></FrequencyChanges></Clock>\n";TMS_Ibrahim-51-3;75.029;1.0.0.561;1;;997053222;2.0.10.242;2.0.10.242;04/04/2023;04/04/2023 15:50;17:50:09;2.0.10.147;0;;-999999;50;53809;0;1;1197;55006;1;1;1;2;1;1;1;BlockProcFischi;BlockList;1;75;0;;-999999;32;56853;0;1;1029;57882;1;1;1;1;ProcFischi1;ListBlockFischi;35;1;2;0;0;3;Pr3_B;125;3;ug;3;2;23;1;35;3;1;TrialProc;4172;716;Pr3_B;181;1533;1715;ListFischi1;0;;2;203;350042;8;13;1564;351606;428;1;1564;1;1416;545;1136;1;1
TMS_Ibrahim;51;3;"<?xml version=""1.0""?>\n<Clock xmlns:dt=""urn:schemas-microsoft-com:datatypes""><Description dt:dt=""string"">E-Prime Primary Realtime Clock</Description><StartTime><Timestamp dt:dt=""int"">0</Timestamp><DateUtc dt:dt=""string"">2023-04-04T15:50:09Z</DateUtc></StartTime><FrequencyChanges><FrequencyChange><Frequency dt:dt=""r8"">3312890</Frequency><Timestamp dt:dt=""r8"">35356145367</Timestamp><Current dt:dt=""r8"">0</Current><DateUtc dt:dt=""string"">2023-04-04T15:50:09Z</DateUtc></FrequencyChange></FrequencyChanges></Clock>\n";TMS_Ibrahim-51-3;75.029;1.0.0.561;1;;997053222;2.0.10.242;2.0.10.242;04/04/2023;04/04/2023 15:50;17:50:09;2.0.10.147;0;;-999999;50;53809;0;1;1197;55006;1;1;1;2;1;1;1;BlockProcFischi;BlockList;1;75;0;;-999999;32;56853;0;1;1029;57882;1;1;1;1;ProcFischi1;ListBlockFischi;36;1;2;0;1;3;Pr3_B;125;3;ug;3;2;18;1;36;3;1;TrialProc;3493;720;Pr3_B;66;1653;1719;ListFischi1;0;;2;203;360061;12;13;1689;361750;329;1;1689;1;418;392;1360;1;1
