ExperimentName;Subject;Session;Clock.Information;DataFile.Basename;Display.RefreshRate;ExperimentVersion;Group;Name;RandomSeed;RuntimeVersion;RuntimeVersionExpected;SessionDate;SessionStartDateTimeUtc;SessionTime;StudioVersion;SyncEprimeKinB1.ACC;SyncEprimeKinB1.CRESP;SyncEprimeKinB1.DurationError;SyncEprimeKinB1.OnsetDelay;SyncEprimeKinB1.OnsetTime;SyncEprimeKinB1.OnsetToOnsetTime;SyncEprimeKinB1.RESP;SyncEprimeKinB1.RT;SyncEprimeKinB1.RTTime;Block;BlockINT_0Fischi_1Suoni;BlockList;BlockList.Cycle;BlockList.Sample;ContatoreSuoni;NumSuono;Procedure[Block];Running[Block];Suonilist;SuonoFinSoglia;SyncEprimeKinFischi1.ACC;SyncEprimeKinFischi1.CRESP;SyncEprimeKinFischi1.DurationError;SyncEprimeKinFischi1.OnsetDelay;SyncEprimeKinFischi1.OnsetTime;SyncEprimeKinFischi1.OnsetToOnsetTime;SyncEprimeKinFischi1.RESP;SyncEprimeKinFischi1.RT;SyncEprimeKinFischi1.RTTime;Trial;ListBlockFischi;ListBlockFischi.Cycle;ListBlockFischi.Sample;Procedure[Trial];Running[Trial];SubTrial;AccSogg1;Avatar_Giu1_Su2;CatchTrial_CORR;ContatoreFinestraSoglia;CorrectResponse;File_Name;FinestraSoglia;IdcondEEG;Istruzione;KeySoggetto1;KeySoggetto2;ListFischi1;ListFischi1.Cycle;ListFischi1.Sample;NumeroSuono;OP_UG;Procedure[SubTrial];Resoconto.RT;RTChange;RTimage;RTNetto;RTSubj;RTTouch;Running[SubTrial];StartGo.ACC;StartGo.CRESP;StartGo.DurationError;StartGo.OnsetDelay;StartGo.OnsetTime;StartGo.OnsetToOnsetTime;StartGo.RESP;StartGo.RT;StartGo.RTTime;StartSoggetto1;StartSoggetto2;StopSoggetto1;StopSoggetto2;StopTrial.RT;tempo;TMSoggetto1;ValiditaTrial;Vincitore
TMS_Ibrahim;52;2;"<?xml version=""1.0""?>\n<Clock xmlns:dt=""urn:schemas-microsoft-com:datatypes""><Description dt:dt=""string"">E-Prime Primary Realtime Clock</Description><StartTime><Timestamp dt:dt=""int"">0</Timestamp><DateUtc dt:dt=""string"">2023-04-05T07:51:26Z</DateUtc></StartTime><FrequencyChanges><FrequencyChange><Frequency dt:dt=""r8"">3312861</Frequency><Timestamp dt:dt=""r8"">18124960155</Timestamp><Current dt:dt=""r8"">0</Current><DateUtc dt:dt=""string"">2023-04-05T07:51:26Z</DateUtc></FrequencyChange></FrequencyChanges></Clock>\n";TMS_Ibrahim-52-2;75.030;1.0.0.561;1;;945748043;2.0.10.242;2.0.10.242;04/05/2023;05/04/2023 07:51;09:51:27;2.0.10.147;0;;-999999;41;36315;0;1;2331;38646;1;1;1;2;1;0;1;BlockProcFischi;BlockList;1;75;0;;-999999;33;42501;0;1;1636;44137;1;1;1;1;ProcFischi1;ListBlockFischi;1;1;1;0;0;5;Po4_B;250;4;ug;5;2;61;1;1;4;1;TrialProc;1228;1366;Po4_B;168;1570;1739;ListFischi1;0;;5;210;47921;24;15;1610;49531;539;1;1610;1;1099;341;1071;1;1
TMS_Ibrahim;52;2;"<?xml version=""1.0""?>\n<Clock xmlns:dt=""urn:schemas-microsoft-com:datatypes""><Description dt:dt=""string"">E-Prime Primary Realtime Clock</Description><StartTime><Timestamp dt:dt=""int"">0</Timestamp><DateUtc dt:dt=""string"">2023-04-05T07:51:26Z</DateUtc></StartTime><FrequencyChanges><FrequencyChange><Frequency dt:dt=""r8"">3312861</Frequency><Timestamp dt:dt=""r8"">18124960155</Timestamp><Current dt:dt=""r8"">0</Current><DateUtc dt:dt=""string"">2023-04-05T07:51:26Z</DateUtc></FrequencyChange></FrequencyChanges></Clock>\n";TMS_Ibrahim-52-2;75.030;1.0.0.561;1;;945748043;2.0.10.242;2.0.10.242;04/05/2023;05/04/2023 07:51;09:51:27;2.0.10.147;0;;-999999;41;36315;0;1;2331;38646;1;1;1;2;1;0;1;BlockProcFischi;BlockList;1;75;0;;-999999;33;42501;0;1;1636;44137;1;1;1;1;ProcFischi1;ListBlockFischi;2;1;2;0;0;3;Pr3_B;250;3;ug;3;2;18;1;2;3;1;TrialProc;798;717;Pr3_B;26;1742;1716;ListFischi1;0;;2;203;55973;9;13;1765;57738;581;1;1765;1;1631;595;1184;1;1
TMS_Ibrahim;52;2;"<?xml version=""1.0""?>\n<Clock xmlns:dt=""urn:schemas-microsoft-com:datatypes""><Description dt:dt=""string"">E-Prime Primary Realtime Clock</Description><StartTime><Timestamp dt:dt=""int"">0</Timestamp><DateUtc dt:dt=""string"">2023-04-05T07:51:26Z</DateUtc></StartTime><FrequencyChanges><FrequencyChange><Frequency dt:dt=""r8"">3312861</Frequency><Timestamp dt:dt=""r8"">18124960155</Timestamp><Current dt:dt=""r8"">0</Current><DateUtc dt:dt=""string"">2023-04-05T07:51:26Z</DateUtc></FrequencyChange></FrequencyChanges></Clock>\n";TMS_Ibrahim-52-2;75.030;1.0.0.561;1;;945748043;2.0.10.242;2.0.10.242;04/05/2023;05/04/2023 07:51;09:51:27;2.0.10.147;0;;-999999;41;36315;0;1;2331;38646;1;1;1;2;1;0;1;BlockProcFischi;BlockList;1;75;0;;-999999;33;42501;0;1;1636;44137;1;1;1;1;ProcFischi1;ListBlockFischi;3;1;2;0;0;3;Pr2_B;225;3;ug;3;2;22;1;3;3;1;TrialProc;526;717;Pr2_B;95;1345;1250;ListFischi1;0;;2;203;63368;11;13;1378;64746;450;1;1378;1;2309;205;928;1;1
TMS_Ibrahim;52;2;"<?xml version=""1.0""?>\n<Clock xmlns:dt=""urn:schemas-microsoft-com:datatypes""><Description dt:dt=""string"">E-Prime Primary Realtime Clock</Description><StartTime><Timestamp dt:dt=""int"">0</Timestamp><DateUtc dt:dt=""string"">2023-04-05T07:51:26Z</DateUtc></StartTime><FrequencyChanges><FrequencyChange><Frequency dt:dt=""r8"">3312861</Frequency><Timestamp dt:dt=""r8"">18124960155</Timestamp><Current dt:dt=""r8"">0</Current><DateUtc dt:dt=""string"">2023-04-05T07:51:26Z</DateUtc></FrequencyChange></FrequencyChanges></Clock>\n";TMS_Ibrahim-52-2;75.030;1.0.0.561;1;;945748043;2.0.10.242;2.0.10.242;04/05/2023;05/04/2023 07:51;09:51:27;2.0.10.147;0;;-999999;41;36315;0;1;2331;38646;1;1;1;2;1;0;1;BlockProcFischi;BlockList;1;75;0;;-999999;33;42501;0;1;1636;44137;1;1;1;1;ProcFischi1;ListBlockFischi;4;1;1;0;0;5;Po5_B;225;4;ug;5;2;57;1;4;4;1;TrialProc;861;978;Po5_B;9;1503;1512;ListFischi1;0;;2;203;71303;6;15;1539;72842;531;1;1539;1;331;210;1008;1;1
TMS_Ibrahim;52;2;"<?xml version=""1.0""?>\n<Clock xmlns:dt=""urn:schemas-microsoft-com:datatypes""><Description dt:dt=""string"">E-Prime Primary Realtime Clock</Description><StartTime><Timestamp dt:dt=""int"">0</Timestamp><DateUtc dt:dt=""string"">2023-04-05T07:51:26Z</DateUtc></StartTime><FrequencyChanges><FrequencyChange><Frequency dt:dt=""r8"">3312861</Frequency><Timestamp dt:dt=""r8"">18124960155</Timestamp><Current dt:dt=""r8"">0</Current><DateUtc dt:dt=""string"">2023-04-05T07:51:26Z</DateUtc></FrequencyChange></FrequencyChanges></Clock>\n";TMS_Ibrahim-52-2;75.030;1.0.0.561;1;;945748043;2.0.10.242;2.0.10.242;04/05/2023;05/04/2023 07:51;09:51:27;2.0.10.147;0;;-999999;41;36315;0;1;2331;38646;1;1;1;2;1;0;1;BlockProcFischi;BlockList;1;75;0;;-999999;33;42501;0;1;1636;44137;1;1;1;1;ProcFischi1;ListBlockFischi;5;1;2;0;0;3;Pr3_B;200;3;ug;3;2;28;1;5;3;1;TrialProc;519;717;Pr3_B;50;1767;1716;ListFischi1;0;;3;201;78389;11;13;1797;80186;581;1;1797;1;2571;508;1216;1;1
TMS_Ibrahim;52;2;"<?xml version=""1.0""?>\n<Clock xmlns:dt=""urn:schemas-microsoft-com:datatypes""><Description dt:dt=""string"">E-Prime Primary Realtime Clock</Description><StartTime><Timestamp dt:dt=""int"">0</Timestamp><DateUtc dt:dt=""string"">2023-04-05T07:51:26Z</DateUtc></StartTime><FrequencyChanges><FrequencyChange><Frequency dt:dt=""r8"">3312861</Frequency><Timestamp dt:dt=""r8"">18124960155</Timestamp><Current dt:dt=""r8"">0</Current><DateUtc dt:dt=""string"">2023-04-05T07:51:26Z</DateUtc></FrequencyChange></FrequencyChanges></Clock>\n";TMS_Ibrahim-52-2;75.030;1.0.0.561;1;;945748043;2.0.10.242;2.0.10.242;04/05/2023;05/04/2023 07:51;09:51:27;2.0.10.147;0;;-999999;41;36315;0;1;2331;38646;1;1;1;2;1;0;1;BlockProcFischi;BlockList;1;75;0;;-999999;33;42501;0;1;1636;44137;1;1;1;1;ProcFischi1;ListBlockFischi;6;1;1;1;0;5;Pomod_B;200;4;ug;5;2;64;1;6;4;1;TrialProc;916;1320;Pomod_B;105;1784;1680;ListFischi1;0;;2;203;85848;15;15;1809;87657;642;1;1809;1;351;379;1167;1;1
TMS_Ibrahim;52;2;"<?xml version=""1.0""?>\n<Clock xmlns:dt=""urn:schemas-microsoft-com:datatypes""><Description dt:dt=""string"">E-Prime Primary Realtime Clock</Description><StartTime><Timestamp dt:dt=""int"">0</Timestamp><DateUtc dt:dt=""string"">2023-04-05T07:51:26Z</DateUtc></StartTime><FrequencyChanges><FrequencyChange><Frequency dt:dt=""r8"">3312861</Frequency><Timestamp dt:dt=""r8"">18124960155</Timestamp><Current dt:dt=""r8"">0</Current><DateUtc dt:dt=""string"">2023-04-05T07:51:26Z</DateUtc></FrequencyChange></FrequencyChanges></Clock>\n";TMS_Ibrahim-52-2;75.030;1.0.0.561;1;;945748043;2.0.10.242;2.0.10.242;04/05/2023;05/04/2023 07:51;09:51:27;2.0.10.147;0;;-999999;41;36315;0;1;2331;38646;1;1;1;2;1;0;1;BlockProcFischi;BlockList;1;75;0;;-999999;33;42501;0;1;1636;44137;1;1;1;1;ProcFischi1;ListBlockFischi;7;1;1;0;0;3;Po5_B;250;2;op;3;2;41;1;7;2;0;TrialProc;805;981;Po5_B;52;1423;1475;ListFischi1;0;;2;203;93825;9;133;2024;95849;456;1;1448;1;54;231;992;1;1
TMS_Ibrahim;52;2;"<?xml version=""1.0""?>\n<Clock xmlns:dt=""urn:schemas-microsoft-com:datatypes""><Description dt:dt=""string"">E-Prime Primary Realtime Clock</Description><StartTime><Timestamp dt:dt=""int"">0</Timestamp><DateUtc dt:dt=""string"">2023-04-05T07:51:26Z</DateUtc></StartTime><FrequencyChanges><FrequencyChange><Frequency dt:dt=""r8"">3312861</Frequency><Timestamp dt:dt=""r8"">18124960155</Timestamp><Current dt:dt=""r8"">0</Current><DateUtc dt:dt=""string"">2023-04-05T07:51:26Z</DateUtc></FrequencyChange></FrequencyChanges></Clock>\n";TMS_Ibrahim-52-2;75.030;1.0.0.561;1;;945748043;2.0.10.242;2.0.10.242;04/05/2023;05/04/2023 07:51;09:51:27;2.0.10.147;0;;-999999;41;36315;0;1;2331;38646;1;1;1;2;1;0;1;BlockProcFischi;BlockList;1;75;0;;-999999;33;42501;0;1;1636;44137;1;1;1;1;ProcFischi1;ListBlockFischi;8;1;2;0;0;5;Pr3_B;250;1;op;5;2;12;1;8;1;0;TrialProc;538;719;Pr3_B;8;1726;1718;ListFischi1;0;;2;203;102338;12;15;1751;104089;487;1;1751;1;1541;579;1264;1;1
TMS_Ibrahim;52;2;"<?xml version=""1.0""?>\n<Clock xmlns:dt=""urn:schemas-microsoft-com:datatypes""><Description dt:dt=""string"">E-Prime Primary Realtime Clock</Description><StartTime><Timestamp dt:dt=""int"">0</Timestamp><DateUtc dt:dt=""string"">2023-04-05T07:51:26Z</DateUtc></StartTime><FrequencyChanges><FrequencyChange><Frequency dt:dt=""r8"">3312861</Frequency><Timestamp dt:dt=""r8"">18124960155</Timestamp><Current dt:dt=""r8"">0</Current><DateUtc dt:dt=""string"">2023-04-05T07:51:26Z</DateUtc></FrequencyChange></FrequencyChanges></Clock>\n";TMS_Ibrahim-52-2;75.030;1.0.0.561;1;;945748043;2.0.10.242;2.0.10.242;04/05/2023;05/04/2023 07:51;09:51:27;2.0.10.147;0;;-999999;41;36315;0;1;2331;38646;1;1;1;2;1;0;1;BlockProcFischi;BlockList;1;75;0;;-999999;33;42501;0;1;1636;44137;1;1;1;1;ProcFischi1;ListBlockFischi;9;1;2;0;0;5;Pr2_B;225;1;op;5;2;6;1;9;1;0;TrialProc;527;719;Pr2_B;14;1265;1251;ListFischi1;0;;3;201;109829;12;15;1284;111113;420;1;1284;1;1600;277;864;1;1
TMS_Ibrahim;52;2;"<?xml version=""1.0""?>\n<Clock xmlns:dt=""urn:schemas-microsoft-com:datatypes""><Description dt:dt=""string"">E-Prime Primary Realtime Clock</Description><StartTime><Timestamp dt:dt=""int"">0</Timestamp><DateUtc dt:dt=""string"">2023-04-05T07:51:26Z</DateUtc></StartTime><FrequencyChanges><FrequencyChange><Frequency dt:dt=""r8"">3312861</Frequency><Timestamp dt:dt=""r8"">18124960155</Timestamp><Current dt:dt=""r8"">0</Current><DateUtc dt:dt=""string"">2023-04-05T07:51:26Z</DateUtc></FrequencyChange></FrequencyChanges></Clock>\n";TMS_Ibrahim-52-2;75.030;1.0.0.561;1;;945748043;2.0.10.242;2.0.10.242;04/05/2023;05/04/2023 07:51;09:51:27;2.0.10.147;0;;-999999;41;36315;0;1;2331;38646;1;1;1;2;1;0;1;BlockProcFischi;BlockList;1;75;0;;-999999;33;42501;0;1;1636;44137;1;1;1;1;ProcFischi1;ListBlockFischi;10;1;1;0;0;5;Po5_B;175;4;ug;5;2;62;1;10;4;1;TrialProc;507;983;Po5_B;20;1457;1477;ListFischi1;0;;2;203;116895;10;15;1482;118377;474;1;1482;1;1536;592;1008;1;1
TMS_Ibrahim;52;2;"<?xml version=""1.0""?>\n<Clock xmlns:dt=""urn:schemas-microsoft-com:datatypes""><Description dt:dt=""string"">E-Prime Primary Realtime Clock</Description><StartTime><Timestamp dt:dt=""int"">0</Timestamp><DateUtc dt:dt=""string"">2023-04-05T07:51:26Z</DateUtc></StartTime><FrequencyChanges><FrequencyChange><Frequency dt:dt=""r8"">3312861</Frequency><Timestamp dt:dt=""r8"">18124960155</Timestamp><Current dt:dt=""r8"">0</Current><DateUtc dt:dt=""string"">2023-04-05T07:51:26Z</DateUtc></FrequencyChange></FrequencyChanges></Clock>\n";TMS_Ibrahim-52-2;75.030;1.0.0.561;1;;945748043;2.0.10.242;2.0.10.242;04/05/2023;05/04/2023 07:51;09:51:27;2.0.10.147;0;;-999999;41;36315;0;1;2331;38646;1;1;1;2;1;0;1;BlockProcFischi;BlockList;1;75;0;;-999999;33;42501;0;1;1636;44137;1;1;1;1;ProcFischi1;ListBlockFischi;11;1;2;0;0;3;Pr5_B;175;3;ug;3;2;20;1;11;3;1;TrialProc;641;684;Pr5_B;242;1525;1284;ListFischi1;0;;2;203;126883;18;13;1557;128440;453;1;1557;1;3843;243;1104;1;1
TMS_Ibrahim;52;2;"<?xml version=""1.0""?>\n<Clock xmlns:dt=""urn:schemas-microsoft-com:datatypes""><Description dt:dt=""string"">E-Prime Primary Realtime Clock</Description><StartTime><Timestamp dt:dt=""int"">0</Timestamp><DateUtc dt:dt=""string"">2023-04-05T07:51:26Z</DateUtc></StartTime><FrequencyChanges><FrequencyChange><Frequency dt:dt=""r8"">3312861</Frequency><Timestamp dt:dt=""r8"">18124960155</Timestamp><Current dt:dt=""r8"">0</Current><DateUtc dt:dt=""string"">2023-04-05T07:51:26Z</DateUtc></FrequencyChange></FrequencyChanges></Clock>\n";TMS_Ibrahim-52-2;75.030;1.0.0.561;1;;945748043;2.0.10.242;2.0.10.242;04/05/2023;05/04/2023 07:51;09:51:27;2.0.10.147;0;;-999999;41;36315;0;1;2331;38646;1;1;1;2;1;0;1;BlockProcFischi;BlockList;1;75;0;;-999999;33;42501;0;1;1636;44137;1;1;1;1;ProcFischi1;ListBlockFischi;12;0;2;0;1;3;Pr5_B;;3;ug;1;2;25;1;12;3;1;TrialProc;990;681;Pr5_B;242;1525;1280;ListFischi1;0;;2;201;134457;14;13;1487;135944;607;1;1;1;0;448;-606;1;0
TMS_Ibrahim;52;2;"<?xml version=""1.0""?>\n<Clock xmlns:dt=""urn:schemas-microsoft-com:datatypes""><Description dt:dt=""string"">E-Prime Primary Realtime Clock</Description><StartTime><Timestamp dt:dt=""int"">0</Timestamp><DateUtc dt:dt=""string"">2023-04-05T07:51:26Z</DateUtc></StartTime><FrequencyChanges><FrequencyChange><Frequency dt:dt=""r8"">3312861</Frequency><Timestamp dt:dt=""r8"">18124960155</Timestamp><Current dt:dt=""r8"">0</Current><DateUtc dt:dt=""string"">2023-04-05T07:51:26Z</DateUtc></FrequencyChange></FrequencyChanges></Clock>\n";TMS_Ibrahim-52-2;75.030;1.0.0.561;1;;945748043;2.0.10.242;2.0.10.242;04/05/2023;05/04/2023 07:51;09:51:27;2.0.10.147;0;;-999999;41;36315;0;1;2331;38646;1;1;1;2;1;0;1;BlockProcFischi;BlockList;1;75;0;;-999999;33;42501;0;1;1636;44137;1;1;1;1;ProcFischi1;ListBlockFischi;13;1;2;0;0;5;Pr3_B;200;1;op;5;2;7;1;13;1;0;TrialProc;462;722;Pr3_B;57;1779;1722;ListFischi1;0;;2;203;142145;17;15;1799;143944;455;1;1799;1;317;589;1344;1;1
TMS_Ibrahim;52;2;"<?xml version=""1.0""?>\n<Clock xmlns:dt=""urn:schemas-microsoft-com:datatypes""><Description dt:dt=""string"">E-Prime Primary Realtime Clock</Description><StartTime><Timestamp dt:dt=""int"">0</Timestamp><DateUtc dt:dt=""string"">2023-04-05T07:51:26Z</DateUtc></StartTime><FrequencyChanges><FrequencyChange><Frequency dt:dt=""r8"">3312861</Frequency><Timestamp dt:dt=""r8"">18124960155</Timestamp><Current dt:dt=""r8"">0</Current><DateUtc dt:dt=""string"">2023-04-05T07:51:26Z</DateUtc></FrequencyChange></FrequencyChanges></Clock>\n";TMS_Ibrahim-52-2;75.030;1.0.0.561;1;;945748043;2.0.10.242;2.0.10.242;04/05/2023;05/04/2023 07:51;09:51:27;2.0.10.147;0;;-999999;41;36315;0;1;2331;38646;1;1;1;2;1;0;1;BlockProcFischi;BlockList;1;75;0;;-999999;33;42501;0;1;1636;44137;1;1;1;1;ProcFischi1;ListBlockFischi;14;1;2;0;1;3;Pr3_B;175;3;ug;3;2;23;1;14;3;1;TrialProc;501;722;Pr3_B;23;1744;1721;ListFischi1;0;;2;201;149184;15;13;1768;150952;536;1;1768;1;487;440;1232;1;1
TMS_Ibrahim;52;2;"<?xml version=""1.0""?>\n<Clock xmlns:dt=""urn:schemas-microsoft-com:datatypes""><Description dt:dt=""string"">E-Prime Primary Realtime Clock</Description><StartTime><Timestamp dt:dt=""int"">0</Timestamp><DateUtc dt:dt=""string"">2023-04-05T07:51:26Z</DateUtc></StartTime><FrequencyChanges><FrequencyChange><Frequency dt:dt=""r8"">3312861</Frequency><Timestamp dt:dt=""r8"">18124960155</Timestamp><Current dt:dt=""r8"">0</Current><DateUtc dt:dt=""string"">2023-04-05T07:51:26Z</DateUtc></FrequencyChange></FrequencyChanges></Clock>\n";TMS_Ibrahim-52-2;75.030;1.0.0.561;1;;945748043;2.0.10.242;2.0.10.242;04/05/2023;05/04/2023 07:51;09:51:27;2.0.10.147;0;;-999999;41;36315;0;1;2331;38646;1;1;1;2;1;0;1;BlockProcFischi;BlockList;1;75;0;;-999999;33;42501;0;1;1636;44137;1;1;1;1;ProcFischi1;ListBlockFischi;15;0;1;1;0;3;Pomod_B;;2;op;1;2;47;1;15;2;0;TrialProc;821;1315;Pomod_B;23;1744;1675;ListFischi1;0;;2;203;156733;10;13;1834;158567;458;1;1;1;51;351;-457;1;0
TMS_Ibrahim;52;2;"<?xml version=""1.0""?>\n<Clock xmlns:dt=""urn:schemas-microsoft-com:datatypes""><Description dt:dt=""string"">E-Prime Primary Realtime Clock</Description><StartTime><Timestamp dt:dt=""int"">0</Timestamp><DateUtc dt:dt=""string"">2023-04-05T07:51:26Z</DateUtc></StartTime><FrequencyChanges><FrequencyChange><Frequency dt:dt=""r8"">3312861</Frequency><Timestamp dt:dt=""r8"">18124960155</Timestamp><Current dt:dt=""r8"">0</Current><DateUtc dt:dt=""string"">2023-04-05T07:51:26Z</DateUtc></FrequencyChange></FrequencyChanges></Clock>\n";TMS_Ibrahim-52-2;75.030;1.0.0.561;1;;945748043;2.0.10.242;2.0.10.242;04/05/2023;05/04/2023 07:51;09:51:27;2.0.10.147;0;;-999999;41;36315;0;1;2331;38646;1;1;1;2;1;0;1;BlockProcFischi;BlockList;1;75;0;;-999999;33;42501;0;1;1636;44137;1;1;1;1;ProcFischi1;ListBlockFischi;16;1;1;0;0;3;Po8_B;225;2;op;3;2;42;1;16;2;0;TrialProc;808;1255;Po8_B;46;1541;1587;ListFischi1;0;;2;203;165725;14;13;1562;167287;474;1;1562;1;2840;298;1088;1;1
TMS_Ibrahim;52;2;"<?xml version=""1.0""?>\n<Clock xmlns:dt=""urn:schemas-microsoft-com:datatypes""><Description dt:dt=""string"">E-Prime Primary Realtime Clock</Description><StartTime><Timestamp dt:dt=""int"">0</Timestamp><DateUtc dt:dt=""string"">2023-04-05T07:51:26Z</DateUtc></StartTime><FrequencyChanges><FrequencyChange><Frequency dt:dt=""r8"">3312861</Frequency><Timestamp dt:dt=""r8"">18124960155</Timestamp><Current dt:dt=""r8"">0</Current><DateUtc dt:dt=""string"">2023-04-05T07:51:26Z</DateUtc></FrequencyChange></FrequencyChanges></Clock>\n";TMS_Ibrahim-52-2;75.030;1.0.0.561;1;;945748043;2.0.10.242;2.0.10.242;04/05/2023;05/04/2023 07:51;09:51:27;2.0.10.147;0;;-999999;41;36315;0;1;2331;38646;1;1;1;2;1;0;1;BlockProcFischi;BlockList;1;75;0;;-999999;33;42501;0;1;1636;44137;1;1;1;1;ProcFischi1;ListBlockFischi;17;1;2;0;0;3;Pr2_B;150;3;ug;3;2;27;1;17;3;1;TrialProc;675;720;Pr2_B;63;1316;1253;ListFischi1;0;;2;201;173404;12;13;1339;174743;459;1;1339;1;686;429;880;1;1
TMS_Ibrahim;52;2;"<?xml version=""1.0""?>\n<Clock xmlns:dt=""urn:schemas-microsoft-com:datatypes""><Description dt:dt=""string"">E-Prime Primary Realtime Clock</Description><StartTime><Timestamp dt:dt=""int"">0</Timestamp><DateUtc dt:dt=""string"">2023-04-05T07:51:26Z</DateUtc></StartTime><FrequencyChanges><FrequencyChange><Frequency dt:dt=""r8"">3312861</Frequency><Timestamp dt:dt=""r8"">18124960155</Timestamp><Current dt:dt=""r8"">0</Current><DateUtc dt:dt=""string"">2023-04-05T07:51:26Z</DateUtc></FrequencyChange></FrequencyChanges></Clock>\n";TMS_Ibrahim-52-2;75.030;1.0.0.561;1;;945748043;2.0.10.242;2.0.10.242;04/05/2023;05/04/2023 07:51;09:51:27;2.0.10.147;0;;-999999;41;36315;0;1;2331;38646;1;1;1;2;1;0;1;BlockProcFischi;BlockList;1;75;0;;-999999;33;42501;0;1;1636;44137;1;1;1;1;ProcFischi1;ListBlockFischi;18;1;1;0;0;3;Po4_B;200;2;op;3;2;40;1;18;2;0;TrialProc;750;1340;Po4_B;164;1550;1713;ListFischi1;0;;2;203;181005;8;13;1578;182583;491;1;1578;1;88;564;1087;1;1
TMS_Ibrahim;52;2;"<?xml version=""1.0""?>\n<Clock xmlns:dt=""urn:schemas-microsoft-com:datatypes""><Description dt:dt=""string"">E-Prime Primary Realtime Clock</Description><StartTime><Timestamp dt:dt=""int"">0</Timestamp><DateUtc dt:dt=""string"">2023-04-05T07:51:26Z</DateUtc></StartTime><FrequencyChanges><FrequencyChange><Frequency dt:dt=""r8"">3312861</Frequency><Timestamp dt:dt=""r8"">18124960155</Timestamp><Current dt:dt=""r8"">0</Current><DateUtc dt:dt=""string"">2023-04-05T07:51:26Z</DateUtc></FrequencyChange></FrequencyChanges></Clock>\n";TMS_Ibrahim-52-2;75.030;1.0.0.561;1;;945748043;2.0.10.242;2.0.10.242;04/05/2023;05/04/2023 07:51;09:51:27;2.0.10.147;0;;-999999;41;36315;0;1;2331;38646;1;1;1;2;1;0;1;BlockProcFischi;BlockList;1;75;0;;-999999;33;42501;0;1;1636;44137;1;1;1;1;ProcFischi1;ListBlockFischi;19;1;2;0;0;5;Pr2_B;175;1;op;5;2;11;1;19;1;0;TrialProc;533;718;Pr2_B;45;1296;1252;ListFischi1;0;;2;201;188666;11;15;1324;189990;413;1;1324;1;536;550;911;1;1
TMS_Ibrahim;52;2;"<?xml version=""1.0""?>\n<Clock xmlns:dt=""urn:schemas-microsoft-com:datatypes""><Description dt:dt=""string"">E-Prime Primary Realtime Clock</Description><StartTime><Timestamp dt:dt=""int"">0</Timestamp><DateUtc dt:dt=""string"">2023-04-05T07:51:26Z</DateUtc></StartTime><FrequencyChanges><FrequencyChange><Frequency dt:dt=""r8"">3312861</Frequency><Timestamp dt:dt=""r8"">18124960155</Timestamp><Current dt:dt=""r8"">0</Current><DateUtc dt:dt=""string"">2023-04-05T07:51:26Z</DateUtc></FrequencyChange></FrequencyChanges></Clock>\n";TMS_Ibrahim-52-2;75.030;1.0.0.561;1;;945748043;2.0.10.242;2.0.10.242;04/05/2023;05/04/2023 07:51;09:51:27;2.0.10.147;0;;-999999;41;36315;0;1;2331;38646;1;1;1;2;1;0;1;BlockProcFischi;BlockList;1;75;0;;-999999;33;42501;0;1;1636;44137;1;1;1;1;ProcFischi1;ListBlockFischi;20;1;1;0;0;5;Po8_B;150;4;ug;5;2;53;1;20;4;1;TrialProc;543;1249;Po8_B;99;1681;1581;ListFischi1;0;;2;203;196199;9;155;2639;198838;543;1;1711;1;917;535;1168;1;1
TMS_Ibrahim;52;2;"<?xml version=""1.0""?>\n<Clock xmlns:dt=""urn:schemas-microsoft-com:datatypes""><Description dt:dt=""string"">E-Prime Primary Realtime Clock</Description><StartTime><Timestamp dt:dt=""int"">0</Timestamp><DateUtc dt:dt=""string"">2023-04-05T07:51:26Z</DateUtc></StartTime><FrequencyChanges><FrequencyChange><Frequency dt:dt=""r8"">3312861</Frequency><Timestamp dt:dt=""r8"">18124960155</Timestamp><Current dt:dt=""r8"">0</Current><DateUtc dt:dt=""string"">2023-04-05T07:51:26Z</DateUtc></FrequencyChange></FrequencyChanges></Clock>\n";TMS_Ibrahim-52-2;75.030;1.0.0.561;1;;945748043;2.0.10.242;2.0.10.242;04/05/2023;05/04/2023 07:51;09:51:27;2.0.10.147;0;;-999999;41;36315;0;1;2331;38646;1;1;1;2;1;0;1;BlockProcFischi;BlockList;1;75;0;;-999999;33;42501;0;1;1636;44137;1;1;1;1;ProcFischi1;ListBlockFischi;21;1;2;0;0;5;Pr2_B;150;1;op;5;2;1;1;21;1;0;TrialProc;566;717;Pr2_B;161;1411;1250;ListFischi1;0;;2;201;202314;11;15;1436;203750;476;1;1436;1;1618;231;960;1;1
TMS_Ibrahim;52;2;"<?xml version=""1.0""?>\n<Clock xmlns:dt=""urn:schemas-microsoft-com:datatypes""><Description dt:dt=""string"">E-Prime Primary Realtime Clock</Description><StartTime><Timestamp dt:dt=""int"">0</Timestamp><DateUtc dt:dt=""string"">2023-04-05T07:51:26Z</DateUtc></StartTime><FrequencyChanges><FrequencyChange><Frequency dt:dt=""r8"">3312861</Frequency><Timestamp dt:dt=""r8"">18124960155</Timestamp><Current dt:dt=""r8"">0</Current><DateUtc dt:dt=""string"">2023-04-05T07:51:26Z</DateUtc></FrequencyChange></FrequencyChanges></Clock>\n";TMS_Ibrahim-52-2;75.030;1.0.0.561;1;;945748043;2.0.10.242;2.0.10.242;04/05/2023;05/04/2023 07:51;09:51:27;2.0.10.147;0;;-999999;41;36315;0;1;2331;38646;1;1;1;2;1;0;1;BlockProcFischi;BlockList;1;75;0;;-999999;33;42501;0;1;1636;44137;1;1;1;1;ProcFischi1;ListBlockFischi;22;1;2;0;0;5;Pr5_B;150;1;op;5;2;4;1;22;1;0;TrialProc;479;675;Pr5_B;353;1628;1276;ListFischi1;0;;2;203;210100;9;15;1650;211750;515;1;1650;1;553;338;1135;1;1
TMS_Ibrahim;52;2;"<?xml version=""1.0""?>\n<Clock xmlns:dt=""urn:schemas-microsoft-com:datatypes""><Description dt:dt=""string"">E-Prime Primary Realtime Clock</Description><StartTime><Timestamp dt:dt=""int"">0</Timestamp><DateUtc dt:dt=""string"">2023-04-05T07:51:26Z</DateUtc></StartTime><FrequencyChanges><FrequencyChange><Frequency dt:dt=""r8"">3312861</Frequency><Timestamp dt:dt=""r8"">18124960155</Timestamp><Current dt:dt=""r8"">0</Current><DateUtc dt:dt=""string"">2023-04-05T07:51:26Z</DateUtc></FrequencyChange></FrequencyChanges></Clock>\n";TMS_Ibrahim-52-2;75.030;1.0.0.561;1;;945748043;2.0.10.242;2.0.10.242;04/05/2023;05/04/2023 07:51;09:51:27;2.0.10.147;0;;-999999;41;36315;0;1;2331;38646;1;1;1;2;1;0;1;BlockProcFischi;BlockList;1;75;0;;-999999;33;42501;0;1;1636;44137;1;1;1;1;ProcFischi1;ListBlockFischi;23;1;1;0;0;5;Po2_B;125;4;ug;5;2;54;1;23;4;1;TrialProc;1971;1587;Po2_B;0;1814;1814;ListFischi1;0;;2;203;218464;15;15;1846;220310;598;1;1846;1;1276;535;1248;1;1
TMS_Ibrahim;52;2;"<?xml version=""1.0""?>\n<Clock xmlns:dt=""urn:schemas-microsoft-com:datatypes""><Description dt:dt=""string"">E-Prime Primary Realtime Clock</Description><StartTime><Timestamp dt:dt=""int"">0</Timestamp><DateUtc dt:dt=""string"">2023-04-05T07:51:26Z</DateUtc></StartTime><FrequencyChanges><FrequencyChange><Frequency dt:dt=""r8"">3312861</Frequency><Timestamp dt:dt=""r8"">18124960155</Timestamp><Current dt:dt=""r8"">0</Current><DateUtc dt:dt=""string"">2023-04-05T07:51:26Z</DateUtc></FrequencyChange></FrequencyChanges></Clock>\n";TMS_Ibrahim-52-2;75.030;1.0.0.561;1;;945748043;2.0.10.242;2.0.10.242;04/05/2023;05/04/2023 07:51;09:51:27;2.0.10.147;0;;-999999;41;36315;0;1;2331;38646;1;1;1;2;1;0;1;BlockProcFischi;BlockList;1;75;0;;-999999;33;42501;0;1;1636;44137;1;1;1;1;ProcFischi1;ListBlockFischi;24;1;2;0;1;5;Pr3_B;150;1;op;5;2;2;1;24;1;0;TrialProc;947;719;Pr3_B;54;1772;1719;ListFischi1;0;;2;203;228183;12;15;1806;229989;638;1;1806;1;1220;270;1168;1;1
TMS_Ibrahim;52;2;"<?xml version=""1.0""?>\n<Clock xmlns:dt=""urn:schemas-microsoft-com:datatypes""><Description dt:dt=""string"">E-Prime Primary Realtime Clock</Description><StartTime><Timestamp dt:dt=""int"">0</Timestamp><DateUtc dt:dt=""string"">2023-04-05T07:51:26Z</DateUtc></StartTime><FrequencyChanges><FrequencyChange><Frequency dt:dt=""r8"">3312861</Frequency><Timestamp dt:dt=""r8"">18124960155</Timestamp><Current dt:dt=""r8"">0</Current><DateUtc dt:dt=""string"">2023-04-05T07:51:26Z</DateUtc></FrequencyChange></FrequencyChanges></Clock>\n";TMS_Ibrahim-52-2;75.030;1.0.0.561;1;;945748043;2.0.10.242;2.0.10.242;04/05/2023;05/04/2023 07:51;09:51:27;2.0.10.147;0;;-999999;41;36315;0;1;2331;38646;1;1;1;2;1;0;1;BlockProcFischi;BlockList;1;75;0;;-999999;33;42501;0;1;1636;44137;1;1;1;1;ProcFischi1;ListBlockFischi;25;1;1;0;0;5;Po5_B;100;4;ug;5;2;52;1;25;4;1;TrialProc;461;986;Po5_B;83;1562;1479;ListFischi1;0;;2;201;235420;12;15;1593;237013;425;1;1593;1;1190;509;1168;1;1
TMS_Ibrahim;52;2;"<?xml version=""1.0""?>\n<Clock xmlns:dt=""urn:schemas-microsoft-com:datatypes""><Description dt:dt=""string"">E-Prime Primary Realtime Clock</Description><StartTime><Timestamp dt:dt=""int"">0</Timestamp><DateUtc dt:dt=""string"">2023-04-05T07:51:26Z</DateUtc></StartTime><FrequencyChanges><FrequencyChange><Frequency dt:dt=""r8"">3312861</Frequency><Timestamp dt:dt=""r8"">18124960155</Timestamp><Current dt:dt=""r8"">0</Current><DateUtc dt:dt=""string"">2023-04-05T07:51:26Z</DateUtc></FrequencyChange></FrequencyChanges></Clock>\n";TMS_Ibrahim-52-2;75.030;1.0.0.561;1;;945748043;2.0.10.242;2.0.10.242;04/05/2023;05/04/2023 07:51;09:51:27;2.0.10.147;0;;-999999;41;36315;0;1;2331;38646;1;1;1;2;1;0;1;BlockProcFischi;BlockList;1;75;0;;-999999;33;42501;0;1;1636;44137;1;1;1;1;ProcFischi1;ListBlockFischi;26;1;1;0;0;3;Po4_B;175;2;op;3;2;45;1;26;2;0;TrialProc;727;1342;Po4_B;97;1618;1715;ListFischi1;0;;2;203;242913;10;13;1652;244565;516;1;1652;1;194;342;1136;1;1
TMS_Ibrahim;52;2;"<?xml version=""1.0""?>\n<Clock xmlns:dt=""urn:schemas-microsoft-com:datatypes""><Description dt:dt=""string"">E-Prime Primary Realtime Clock</Description><StartTime><Timestamp dt:dt=""int"">0</Timestamp><DateUtc dt:dt=""string"">2023-04-05T07:51:26Z</DateUtc></StartTime><FrequencyChanges><FrequencyChange><Frequency dt:dt=""r8"">3312861</Frequency><Timestamp dt:dt=""r8"">18124960155</Timestamp><Current dt:dt=""r8"">0</Current><DateUtc dt:dt=""string"">2023-04-05T07:51:26Z</DateUtc></FrequencyChange></FrequencyChanges></Clock>\n";TMS_Ibrahim-52-2;75.030;1.0.0.561;1;;945748043;2.0.10.242;2.0.10.242;04/05/2023;05/04/2023 07:51;09:51:27;2.0.10.147;0;;-999999;41;36315;0;1;2331;38646;1;1;1;2;1;0;1;BlockProcFischi;BlockList;1;75;0;;-999999;33;42501;0;1;1636;44137;1;1;1;1;ProcFischi1;ListBlockFischi;27;1;2;0;0;5;Pr8_B;125;1;op;5;2;5;1;27;1;0;TrialProc;607;721;Pr8_B;164;1912;1748;ListFischi1;0;;2;201;250240;13;15;1941;252181;565;1;1941;1;803;343;1376;1;1
TMS_Ibrahim;52;2;"<?xml version=""1.0""?>\n<Clock xmlns:dt=""urn:schemas-microsoft-com:datatypes""><Description dt:dt=""string"">E-Prime Primary Realtime Clock</Description><StartTime><Timestamp dt:dt=""int"">0</Timestamp><DateUtc dt:dt=""string"">2023-04-05T07:51:26Z</DateUtc></StartTime><FrequencyChanges><FrequencyChange><Frequency dt:dt=""r8"">3312861</Frequency><Timestamp dt:dt=""r8"">18124960155</Timestamp><Current dt:dt=""r8"">0</Current><DateUtc dt:dt=""string"">2023-04-05T07:51:26Z</DateUtc></FrequencyChange></FrequencyChanges></Clock>\n";TMS_Ibrahim-52-2;75.030;1.0.0.561;1;;945748043;2.0.10.242;2.0.10.242;04/05/2023;05/04/2023 07:51;09:51:27;2.0.10.147;0;;-999999;41;36315;0;1;2331;38646;1;1;1;2;1;0;1;BlockProcFischi;BlockList;1;75;0;;-999999;33;42501;0;1;1636;44137;1;1;1;1;ProcFischi1;ListBlockFischi;28;1;1;0;0;3;Po3_B;150;2;op;3;2;39;1;28;2;0;TrialProc;732;1319;Po3_B;12;1574;1586;ListFischi1;0;;2;203;257198;13;13;1606;258804;454;1;1606;1;507;323;1152;1;1
TMS_Ibrahim;52;2;"<?xml version=""1.0""?>\n<Clock xmlns:dt=""urn:schemas-microsoft-com:datatypes""><Description dt:dt=""string"">E-Prime Primary Realtime Clock</Description><StartTime><Timestamp dt:dt=""int"">0</Timestamp><DateUtc dt:dt=""string"">2023-04-05T07:51:26Z</DateUtc></StartTime><FrequencyChanges><FrequencyChange><Frequency dt:dt=""r8"">3312861</Frequency><Timestamp dt:dt=""r8"">18124960155</Timestamp><Current dt:dt=""r8"">0</Current><DateUtc dt:dt=""string"">2023-04-05T07:51:26Z</DateUtc></FrequencyChange></FrequencyChanges></Clock>\n";TMS_Ibrahim-52-2;75.030;1.0.0.561;1;;945748043;2.0.10.242;2.0.10.242;04/05/2023;05/04/2023 07:51;09:51:27;2.0.10.147;0;;-999999;41;36315;0;1;2331;38646;1;1;1;2;1;0;1;BlockProcFischi;BlockList;1;75;0;;-999999;33;42501;0;1;1636;44137;1;1;1;1;ProcFischi1;ListBlockFischi;29;1;2;0;0;3;Pr2_B;125;3;ug;3;2;17;1;29;3;1;TrialProc;797;718;Pr2_B;85;1336;1252;ListFischi1;0;;2;201;264797;11;133;1943;266740;359;1;1367;1;286;384;1008;1;1
TMS_Ibrahim;52;2;"<?xml version=""1.0""?>\n<Clock xmlns:dt=""urn:schemas-microsoft-com:datatypes""><Description dt:dt=""string"">E-Prime Primary Realtime Clock</Description><StartTime><Timestamp dt:dt=""int"">0</Timestamp><DateUtc dt:dt=""string"">2023-04-05T07:51:26Z</DateUtc></StartTime><FrequencyChanges><FrequencyChange><Frequency dt:dt=""r8"">3312861</Frequency><Timestamp dt:dt=""r8"">18124960155</Timestamp><Current dt:dt=""r8"">0</Current><DateUtc dt:dt=""string"">2023-04-05T07:51:26Z</DateUtc></FrequencyChange></FrequencyChanges></Clock>\n";TMS_Ibrahim-52-2;75.030;1.0.0.561;1;;945748043;2.0.10.242;2.0.10.242;04/05/2023;05/04/2023 07:51;09:51:27;2.0.10.147;0;;-999999;41;36315;0;1;2331;38646;1;1;1;2;1;0;1;BlockProcFischi;BlockList;1;75;0;;-999999;33;42501;0;1;1636;44137;1;1;1;1;ProcFischi1;ListBlockFischi;30;1;1;0;0;3;Po3_B;125;2;op;3;2;34;1;30;2;0;TrialProc;748;1314;Po3_B;104;1477;1582;ListFischi1;0;;2;203;271916;9;13;1512;273428;392;1;1512;1;144;209;1120;1;1
TMS_Ibrahim;52;2;"<?xml version=""1.0""?>\n<Clock xmlns:dt=""urn:schemas-microsoft-com:datatypes""><Description dt:dt=""string"">E-Prime Primary Realtime Clock</Description><StartTime><Timestamp dt:dt=""int"">0</Timestamp><DateUtc dt:dt=""string"">2023-04-05T07:51:26Z</DateUtc></StartTime><FrequencyChanges><FrequencyChange><Frequency dt:dt=""r8"">3312861</Frequency><Timestamp dt:dt=""r8"">18124960155</Timestamp><Current dt:dt=""r8"">0</Current><DateUtc dt:dt=""string"">2023-04-05T07:51:26Z</DateUtc></FrequencyChange></FrequencyChanges></Clock>\n";TMS_Ibrahim-52-2;75.030;1.0.0.561;1;;945748043;2.0.10.242;2.0.10.242;04/05/2023;05/04/2023 07:51;09:51:27;2.0.10.147;0;;-999999;41;36315;0;1;2331;38646;1;1;1;2;1;0;1;BlockProcFischi;BlockList;1;75;0;;-999999;33;42501;0;1;1636;44137;1;1;1;1;ProcFischi1;ListBlockFischi;31;1;1;0;0;3;Po8_B;125;2;op;3;2;37;1;31;2;0;TrialProc;740;1252;Po8_B;47;1633;1585;ListFischi1;0;;2;201;279111;11;13;1661;280772;461;1;1661;1;365;342;1200;1;1
TMS_Ibrahim;52;2;"<?xml version=""1.0""?>\n<Clock xmlns:dt=""urn:schemas-microsoft-com:datatypes""><Description dt:dt=""string"">E-Prime Primary Realtime Clock</Description><StartTime><Timestamp dt:dt=""int"">0</Timestamp><DateUtc dt:dt=""string"">2023-04-05T07:51:26Z</DateUtc></StartTime><FrequencyChanges><FrequencyChange><Frequency dt:dt=""r8"">3312861</Frequency><Timestamp dt:dt=""r8"">18124960155</Timestamp><Current dt:dt=""r8"">0</Current><DateUtc dt:dt=""string"">2023-04-05T07:51:26Z</DateUtc></FrequencyChange></FrequencyChanges></Clock>\n";TMS_Ibrahim-52-2;75.030;1.0.0.561;1;;945748043;2.0.10.242;2.0.10.242;04/05/2023;05/04/2023 07:51;09:51:27;2.0.10.147;0;;-999999;41;36315;0;1;2331;38646;1;1;1;2;1;0;1;BlockProcFischi;BlockList;1;75;0;;-999999;33;42501;0;1;1636;44137;1;1;1;1;ProcFischi1;ListBlockFischi;32;1;2;0;1;5;Pr4_B;125;1;op;5;2;3;1;32;1;0;TrialProc;592;682;Pr4_B;167;1423;1255;ListFischi1;0;;2;203;286410;16;15;1450;287860;490;1;1450;1;217;318;960;1;1
TMS_Ibrahim;52;2;"<?xml version=""1.0""?>\n<Clock xmlns:dt=""urn:schemas-microsoft-com:datatypes""><Description dt:dt=""string"">E-Prime Primary Realtime Clock</Description><StartTime><Timestamp dt:dt=""int"">0</Timestamp><DateUtc dt:dt=""string"">2023-04-05T07:51:26Z</DateUtc></StartTime><FrequencyChanges><FrequencyChange><Frequency dt:dt=""r8"">3312861</Frequency><Timestamp dt:dt=""r8"">18124960155</Timestamp><Current dt:dt=""r8"">0</Current><DateUtc dt:dt=""string"">2023-04-05T07:51:26Z</DateUtc></FrequencyChange></FrequencyChanges></Clock>\n";TMS_Ibrahim-52-2;75.030;1.0.0.561;1;;945748043;2.0.10.242;2.0.10.242;04/05/2023;05/04/2023 07:51;09:51:27;2.0.10.147;0;;-999999;41;36315;0;1;2331;38646;1;1;1;2;1;0;1;BlockProcFischi;BlockList;1;75;0;;-999999;33;42501;0;1;1636;44137;1;1;1;1;ProcFischi1;ListBlockFischi;33;1;2;0;0;3;Pr8_B;100;3;ug;3;2;26;1;33;3;1;TrialProc;522;722;Pr8_B;187;1936;1748;ListFischi1;0;;2;201;293528;15;13;1963;295491;763;1;1963;1;903;445;1200;1;1
TMS_Ibrahim;52;2;"<?xml version=""1.0""?>\n<Clock xmlns:dt=""urn:schemas-microsoft-com:datatypes""><Description dt:dt=""string"">E-Prime Primary Realtime Clock</Description><StartTime><Timestamp dt:dt=""int"">0</Timestamp><DateUtc dt:dt=""string"">2023-04-05T07:51:26Z</DateUtc></StartTime><FrequencyChanges><FrequencyChange><Frequency dt:dt=""r8"">3312861</Frequency><Timestamp dt:dt=""r8"">18124960155</Timestamp><Current dt:dt=""r8"">0</Current><DateUtc dt:dt=""string"">2023-04-05T07:51:26Z</DateUtc></FrequencyChange></FrequencyChanges></Clock>\n";TMS_Ibrahim-52-2;75.030;1.0.0.561;1;;945748043;2.0.10.242;2.0.10.242;04/05/2023;05/04/2023 07:51;09:51:27;2.0.10.147;0;;-999999;41;36315;0;1;2331;38646;1;1;1;2;1;0;1;BlockProcFischi;BlockList;1;75;0;;-999999;33;42501;0;1;1636;44137;1;1;1;1;ProcFischi1;ListBlockFischi;34;1;1;0;0;3;Po5_B;100;2;op;3;2;46;1;34;2;0;TrialProc;638;981;Po5_B;21;1497;1476;ListFischi1;0;;2;203;300865;9;13;1522;302387;418;1;1522;1;727;389;1104;1;1
TMS_Ibrahim;52;2;"<?xml version=""1.0""?>\n<Clock xmlns:dt=""urn:schemas-microsoft-com:datatypes""><Description dt:dt=""string"">E-Prime Primary Realtime Clock</Description><StartTime><Timestamp dt:dt=""int"">0</Timestamp><DateUtc dt:dt=""string"">2023-04-05T07:51:26Z</DateUtc></StartTime><FrequencyChanges><FrequencyChange><Frequency dt:dt=""r8"">3312861</Frequency><Timestamp dt:dt=""r8"">18124960155</Timestamp><Current dt:dt=""r8"">0</Current><DateUtc dt:dt=""string"">2023-04-05T07:51:26Z</DateUtc></FrequencyChange></FrequencyChanges></Clock>\n";TMS_Ibrahim-52-2;75.030;1.0.0.561;1;;945748043;2.0.10.242;2.0.10.242;04/05/2023;05/04/2023 07:51;09:51:27;2.0.10.147;0;;-999999;41;36315;0;1;2331;38646;1;1;1;2;1;0;1;BlockProcFischi;BlockList;1;75;0;;-999999;33;42501;0;1;1636;44137;1;1;1;1;ProcFischi1;ListBlockFischi;35;1;2;0;2;5;Pr8_B;125;1;op;5;2;10;1;35;1;0;TrialProc;580;716;Pr8_B;97;1839;1741;ListFischi1;0;;2;201;308009;9;155;2106;310115;394;1;1866;1;137;212;1472;1;1
TMS_Ibrahim;52;2;"<?xml version=""1.0""?>\n<Clock xmlns:dt=""urn:schemas-microsoft-com:datatypes""><Description dt:dt=""string"">E-Prime Primary Realtime Clock</Description><StartTime><Timestamp dt:dt=""int"">0</Timestamp><DateUtc dt:dt=""string"">2023-04-05T07:51:26Z</DateUtc></StartTime><FrequencyChanges><FrequencyChange><Frequency dt:dt=""r8"">3312861</Frequency><Timestamp dt:dt=""r8"">18124960155</Timestamp><Current dt:dt=""r8"">0</Current><DateUtc dt:dt=""string"">2023-04-05T07:51:26Z</DateUtc></FrequencyChange></FrequencyChanges></Clock>\n";TMS_Ibrahim-52-2;75.030;1.0.0.561;1;;945748043;2.0.10.242;2.0.10.242;04/05/2023;05/04/2023 07:51;09:51:27;2.0.10.147;0;;-999999;41;36315;0;1;2331;38646;1;1;1;2;1;0;1;BlockProcFischi;BlockList;1;75;0;;-999999;33;42501;0;1;1636;44137;1;1;1;1;ProcFischi1;ListBlockFischi;36;1;2;0;1;3;Pr4_B;100;3;ug;3;2;19;1;36;3;1;TrialProc;774;679;Pr4_B;181;1432;1251;ListFischi1;0;;2;203;315109;13;13;1454;316563;462;1;1454;1;809;444;992;1;1
TMS_Ibrahim;52;2;"<?xml version=""1.0""?>\n<Clock xmlns:dt=""urn:schemas-microsoft-com:datatypes""><Description dt:dt=""string"">E-Prime Primary Realtime Clock</Description><StartTime><Timestamp dt:dt=""int"">0</Timestamp><DateUtc dt:dt=""string"">2023-04-05T07:51:26Z</DateUtc></StartTime><FrequencyChanges><FrequencyChange><Frequency dt:dt=""r8"">3312861</Frequency><Timestamp dt:dt=""r8"">18124960155</Timestamp><Current dt:dt=""r8"">0</Current><DateUtc dt:dt=""string"">2023-04-05T07:51:26Z</DateUtc></FrequencyChange></FrequencyChanges></Clock>\n";TMS_Ibrahim-52-2;75.030;1.0.0.561;1;;945748043;2.0.10.242;2.0.10.242;04/05/2023;05/04/2023 07:51;09:51:27;2.0.10.147;0;;-999999;41;36315;0;1;2331;38646;1;1;1;2;1;0;1;BlockProcFischi;BlockList;1;75;0;;-999999;33;42501;0;1;1636;44137;1;1;1;1;ProcFischi1;ListBlockFischi;37;1;1;1;0;5;Pomod_B;100;4;ug;5;2;63;1;37;4;1;TrialProc;532;1319;Pomod_B;83;1762;1679;ListFischi1;0;;2;201;322265;14;15;1786;324051;714;1;1786;1;243;279;1072;1;1
TMS_Ibrahim;52;2;"<?xml version=""1.0""?>\n<Clock xmlns:dt=""urn:schemas-microsoft-com:datatypes""><Description dt:dt=""string"">E-Prime Primary Realtime Clock</Description><StartTime><Timestamp dt:dt=""int"">0</Timestamp><DateUtc dt:dt=""string"">2023-04-05T07:51:26Z</DateUtc></StartTime><FrequencyChanges><FrequencyChange><Frequency dt:dt=""r8"">3312861</Frequency><Timestamp dt:dt=""r8"">18124960155</Timestamp><Current dt:dt=""r8"">0</Current><DateUtc dt:dt=""string"">2023-04-05T07:51:26Z</DateUtc></FrequencyChange></FrequencyChanges></Clock>\n";TMS_Ibrahim-52-2;75.030;1.0.0.561;1;;945748043;2.0.10.242;2.0.10.242;04/05/2023;05/04/2023 07:51;09:51:27;2.0.10.147;0;;-999999;41;36315;0;1;2331;38646;1;1;1;2;1;0;1;BlockProcFischi;BlockList;1;75;0;;-999999;33;42501;0;1;1636;44137;1;1;1;1;ProcFischi1;ListBlockFischi;38;1;2;0;0;5;Pr5_B;100;1;op;5;2;9;1;38;1;0;TrialProc;616;682;Pr5_B;355;1636;1282;ListFischi1;0;;2;203;329421;15;15;1669;331090;533;1;1669;1;798;512;1136;1;1
TMS_Ibrahim;52;2;"<?xml version=""1.0""?>\n<Clock xmlns:dt=""urn:schemas-microsoft-com:datatypes""><Description dt:dt=""string"">E-Prime Primary Realtime Clock</Description><StartTime><Timestamp dt:dt=""int"">0</Timestamp><DateUtc dt:dt=""string"">2023-04-05T07:51:26Z</DateUtc></StartTime><FrequencyChanges><FrequencyChange><Frequency dt:dt=""r8"">3312861</Frequency><Timestamp dt:dt=""r8"">18124960155</Timestamp><Current dt:dt=""r8"">0</Current><DateUtc dt:dt=""string"">2023-04-05T07:51:26Z</DateUtc></FrequencyChange></FrequencyChanges></Clock>\n";TMS_Ibrahim-52-2;75.030;1.0.0.561;1;;945748043;2.0.10.242;2.0.10.242;04/05/2023;05/04/2023 07:51;09:51:27;2.0.10.147;0;;-999999;41;36315;0;1;2331;38646;1;1;1;2;1;0;1;BlockProcFischi;BlockList;1;75;0;;-999999;33;42501;0;1;1636;44137;1;1;1;1;ProcFischi1;ListBlockFischi;39;1;1;0;0;5;Po3_B;100;4;ug;5;2;50;1;39;4;1;TrialProc;653;1324;Po3_B;90;1501;1590;ListFischi1;0;;2;201;336469;18;15;1533;338002;494;1;1533;1;893;238;1039;1;1
TMS_Ibrahim;52;2;"<?xml version=""1.0""?>\n<Clock xmlns:dt=""urn:schemas-microsoft-com:datatypes""><Description dt:dt=""string"">E-Prime Primary Realtime Clock</Description><StartTime><Timestamp dt:dt=""int"">0</Timestamp><DateUtc dt:dt=""string"">2023-04-05T07:51:26Z</DateUtc></StartTime><FrequencyChanges><FrequencyChange><Frequency dt:dt=""r8"">3312861</Frequency><Timestamp dt:dt=""r8"">18124960155</Timestamp><Current dt:dt=""r8"">0</Current><DateUtc dt:dt=""string"">2023-04-05T07:51:26Z</DateUtc></FrequencyChange></FrequencyChanges></Clock>\n";TMS_Ibrahim-52-2;75.030;1.0.0.561;1;;945748043;2.0.10.242;2.0.10.242;04/05/2023;05/04/2023 07:51;09:51:27;2.0.10.147;0;;-999999;41;36315;0;1;2331;38646;1;1;1;2;1;0;1;BlockProcFischi;BlockList;1;75;0;;-999999;33;42501;0;1;1636;44137;1;1;1;1;ProcFischi1;ListBlockFischi;40;1;1;0;0;3;Po2_B;75;2;op;3;2;43;1;40;2;0;TrialProc;898;1580;Po2_B;35;1772;1806;ListFischi1;0;;2;203;343796;8;13;1806;345602;590;1;1806;1;1903;268;1216;1;1
TMS_Ibrahim;52;2;"<?xml version=""1.0""?>\n<Clock xmlns:dt=""urn:schemas-microsoft-com:datatypes""><Description dt:dt=""string"">E-Prime Primary Realtime Clock</Description><StartTime><Timestamp dt:dt=""int"">0</Timestamp><DateUtc dt:dt=""string"">2023-04-05T07:51:26Z</DateUtc></StartTime><FrequencyChanges><FrequencyChange><Frequency dt:dt=""r8"">3312861</Frequency><Timestamp dt:dt=""r8"">18124960155</Timestamp><Current dt:dt=""r8"">0</Current><DateUtc dt:dt=""string"">2023-04-05T07:51:26Z</DateUtc></FrequencyChange></FrequencyChanges></Clock>\n";TMS_Ibrahim-52-2;75.030;1.0.0.561;1;;945748043;2.0.10.242;2.0.10.242;04/05/2023;05/04/2023 07:51;09:51:27;2.0.10.147;0;;-999999;41;36315;0;1;2331;38646;1;1;1;2;1;0;1;BlockProcFischi;BlockList;1;75;0;;-999999;33;42501;0;1;1636;44137;1;1;1;1;ProcFischi1;ListBlockFischi;41;1;1;0;0;5;Po2_B;100;4;ug;5;2;49;1;41;4;1;TrialProc;587;1583;Po2_B;47;1857;1809;ListFischi1;0;;2;201;351310;11;15;1892;353202;548;1;1892;1;82;472;1344;1;1
TMS_Ibrahim;52;2;"<?xml version=""1.0""?>\n<Clock xmlns:dt=""urn:schemas-microsoft-com:datatypes""><Description dt:dt=""string"">E-Prime Primary Realtime Clock</Description><StartTime><Timestamp dt:dt=""int"">0</Timestamp><DateUtc dt:dt=""string"">2023-04-05T07:51:26Z</DateUtc></StartTime><FrequencyChanges><FrequencyChange><Frequency dt:dt=""r8"">3312861</Frequency><Timestamp dt:dt=""r8"">18124960155</Timestamp><Current dt:dt=""r8"">0</Current><DateUtc dt:dt=""string"">2023-04-05T07:51:26Z</DateUtc></FrequencyChange></FrequencyChanges></Clock>\n";TMS_Ibrahim-52-2;75.030;1.0.0.561;1;;945748043;2.0.10.242;2.0.10.242;04/05/2023;05/04/2023 07:51;09:51:27;2.0.10.147;0;;-999999;41;36315;0;1;2331;38646;1;1;1;2;1;0;1;BlockProcFischi;BlockList;1;75;0;;-999999;33;42501;0;1;1636;44137;1;1;1;1;ProcFischi1;ListBlockFischi;42;0;1;1;0;3;Pomod_B;;2;op;1;2;48;1;42;2;0;TrialProc;1344;1319;Pomod_B;47;1857;1679;ListFischi1;0;;2;203;358413;12;13;2101;360514;837;1;1;1;212;416;-836;1;0
TMS_Ibrahim;52;2;"<?xml version=""1.0""?>\n<Clock xmlns:dt=""urn:schemas-microsoft-com:datatypes""><Description dt:dt=""string"">E-Prime Primary Realtime Clock</Description><StartTime><Timestamp dt:dt=""int"">0</Timestamp><DateUtc dt:dt=""string"">2023-04-05T07:51:26Z</DateUtc></StartTime><FrequencyChanges><FrequencyChange><Frequency dt:dt=""r8"">3312861</Frequency><Timestamp dt:dt=""r8"">18124960155</Timestamp><Current dt:dt=""r8"">0</Current><DateUtc dt:dt=""string"">2023-04-05T07:51:26Z</DateUtc></FrequencyChange></FrequencyChanges></Clock>\n";TMS_Ibrahim-52-2;75.030;1.0.0.561;1;;945748043;2.0.10.242;2.0.10.242;04/05/2023;05/04/2023 07:51;09:51:27;2.0.10.147;0;;-999999;41;36315;0;1;2331;38646;1;1;1;2;1;0;1;BlockProcFischi;BlockList;1;75;0;;-999999;33;42501;0;1;1636;44137;1;1;1;1;ProcFischi1;ListBlockFischi;43;1;1;0;0;3;Po3_B;50;2;op;3;2;44;1;43;2;0;TrialProc;586;1322;Po3_B;83;1507;1590;ListFischi1;0;;2;201;365752;17;13;1529;367281;537;1;1529;1;2017;370;992;1;1
TMS_Ibrahim;52;2;"<?xml version=""1.0""?>\n<Clock xmlns:dt=""urn:schemas-microsoft-com:datatypes""><Description dt:dt=""string"">E-Prime Primary Realtime Clock</Description><StartTime><Timestamp dt:dt=""int"">0</Timestamp><DateUtc dt:dt=""string"">2023-04-05T07:51:26Z</DateUtc></StartTime><FrequencyChanges><FrequencyChange><Frequency dt:dt=""r8"">3312861</Frequency><Timestamp dt:dt=""r8"">18124960155</Timestamp><Current dt:dt=""r8"">0</Current><DateUtc dt:dt=""string"">2023-04-05T07:51:26Z</DateUtc></FrequencyChange></FrequencyChanges></Clock>\n";TMS_Ibrahim-52-2;75.030;1.0.0.561;1;;945748043;2.0.10.242;2.0.10.242;04/05/2023;05/04/2023 07:51;09:51:27;2.0.10.147;0;;-999999;41;36315;0;1;2331;38646;1;1;1;2;1;0;1;BlockProcFischi;BlockList;1;75;0;;-999999;33;42501;0;1;1636;44137;1;1;1;1;ProcFischi1;ListBlockFischi;44;1;2;0;1;5;Pr5_B;100;1;op;5;2;14;1;44;1;0;TrialProc;1167;675;Pr5_B;179;1455;1275;ListFischi1;0;;2;203;373010;9;155;1615;374625;479;1;1487;1;457;324;1008;1;1
TMS_Ibrahim;52;2;"<?xml version=""1.0""?>\n<Clock xmlns:dt=""urn:schemas-microsoft-com:datatypes""><Description dt:dt=""string"">E-Prime Primary Realtime Clock</Description><StartTime><Timestamp dt:dt=""int"">0</Timestamp><DateUtc dt:dt=""string"">2023-04-05T07:51:26Z</DateUtc></StartTime><FrequencyChanges><FrequencyChange><Frequency dt:dt=""r8"">3312861</Frequency><Timestamp dt:dt=""r8"">18124960155</Timestamp><Current dt:dt=""r8"">0</Current><DateUtc dt:dt=""string"">2023-04-05T07:51:26Z</DateUtc></FrequencyChange></FrequencyChanges></Clock>\n";TMS_Ibrahim-52-2;75.030;1.0.0.561;1;;945748043;2.0.10.242;2.0.10.242;04/05/2023;05/04/2023 07:51;09:51:27;2.0.10.147;0;;-999999;41;36315;0;1;2331;38646;1;1;1;2;1;0;1;BlockProcFischi;BlockList;1;75;0;;-999999;33;42501;0;1;1636;44137;1;1;1;1;ProcFischi1;ListBlockFischi;45;1;2;0;2;5;Pr4_B;100;1;op;5;2;13;1;45;1;0;TrialProc;667;675;Pr4_B;220;1467;1248;ListFischi1;0;;2;203;380767;9;15;1490;382257;434;1;1490;1;1268;230;1056;1;1
TMS_Ibrahim;52;2;"<?xml version=""1.0""?>\n<Clock xmlns:dt=""urn:schemas-microsoft-com:datatypes""><Description dt:dt=""string"">E-Prime Primary Realtime Clock</Description><StartTime><Timestamp dt:dt=""int"">0</Timestamp><DateUtc dt:dt=""string"">2023-04-05T07:51:26Z</DateUtc></StartTime><FrequencyChanges><FrequencyChange><Frequency dt:dt=""r8"">3312861</Frequency><Timestamp dt:dt=""r8"">18124960155</Timestamp><Current dt:dt=""r8"">0</Current><DateUtc dt:dt=""string"">2023-04-05T07:51:26Z</DateUtc></FrequencyChange></FrequencyChanges></Clock>\n";TMS_Ibrahim-52-2;75.030;1.0.0.561;1;;945748043;2.0.10.242;2.0.10.242;04/05/2023;05/04/2023 07:51;09:51:27;2.0.10.147;0;;-999999;41;36315;0;1;2331;38646;1;1;1;2;1;0;1;BlockProcFischi;BlockList;1;75;0;;-999999;33;42501;0;1;1636;44137;1;1;1;1;ProcFischi1;ListBlockFischi;46;1;1;0;0;5;Po2_B;75;4;ug;5;2;59;1;46;4;1;TrialProc;1963;1583;Po2_B;84;1893;1809;ListFischi1;0;;2;201;387723;11;15;1926;389649;518;1;1926;1;266;491;1408;1;1
TMS_Ibrahim;52;2;"<?xml version=""1.0""?>\n<Clock xmlns:dt=""urn:schemas-microsoft-com:datatypes""><Description dt:dt=""string"">E-Prime Primary Realtime Clock</Description><StartTime><Timestamp dt:dt=""int"">0</Timestamp><DateUtc dt:dt=""string"">2023-04-05T07:51:26Z</DateUtc></StartTime><FrequencyChanges><FrequencyChange><Frequency dt:dt=""r8"">3312861</Frequency><Timestamp dt:dt=""r8"">18124960155</Timestamp><Current dt:dt=""r8"">0</Current><DateUtc dt:dt=""string"">2023-04-05T07:51:26Z</DateUtc></FrequencyChange></FrequencyChanges></Clock>\n";TMS_Ibrahim-52-2;75.030;1.0.0.561;1;;945748043;2.0.10.242;2.0.10.242;04/05/2023;05/04/2023 07:51;09:51:27;2.0.10.147;0;;-999999;41;36315;0;1;2331;38646;1;1;1;2;1;0;1;BlockProcFischi;BlockList;1;75;0;;-999999;33;42501;0;1;1636;44137;1;1;1;1;ProcFischi1;ListBlockFischi;47;1;1;0;0;5;Po4_B;75;4;ug;5;2;51;1;47;4;1;TrialProc;595;1342;Po4_B;157;1556;1714;ListFischi1;0;;2;203;394803;8;15;1581;396384;415;1;1581;1;858;249;1166;1;1
TMS_Ibrahim;52;2;"<?xml version=""1.0""?>\n<Clock xmlns:dt=""urn:schemas-microsoft-com:datatypes""><Description dt:dt=""string"">E-Prime Primary Realtime Clock</Description><StartTime><Timestamp dt:dt=""int"">0</Timestamp><DateUtc dt:dt=""string"">2023-04-05T07:51:26Z</DateUtc></StartTime><FrequencyChanges><FrequencyChange><Frequency dt:dt=""r8"">3312861</Frequency><Timestamp dt:dt=""r8"">18124960155</Timestamp><Current dt:dt=""r8"">0</Current><DateUtc dt:dt=""string"">2023-04-05T07:51:26Z</DateUtc></FrequencyChange></FrequencyChanges></Clock>\n";TMS_Ibrahim-52-2;75.030;1.0.0.561;1;;945748043;2.0.10.242;2.0.10.242;04/05/2023;05/04/2023 07:51;09:51:27;2.0.10.147;0;;-999999;41;36315;0;1;2331;38646;1;1;1;2;1;0;1;BlockProcFischi;BlockList;1;75;0;;-999999;33;42501;0;1;1636;44137;1;1;1;1;ProcFischi1;ListBlockFischi;48;0;2;0;2;3;Pr5_B;;3;ug;1;2;30;1;48;3;1;TrialProc;835;682;Pr5_B;157;1556;1281;ListFischi1;0;;2;201;402179;16;133;1757;403936;333;1;1;1;161;369;-332;1;0
TMS_Ibrahim;52;2;"<?xml version=""1.0""?>\n<Clock xmlns:dt=""urn:schemas-microsoft-com:datatypes""><Description dt:dt=""string"">E-Prime Primary Realtime Clock</Description><StartTime><Timestamp dt:dt=""int"">0</Timestamp><DateUtc dt:dt=""string"">2023-04-05T07:51:26Z</DateUtc></StartTime><FrequencyChanges><FrequencyChange><Frequency dt:dt=""r8"">3312861</Frequency><Timestamp dt:dt=""r8"">18124960155</Timestamp><Current dt:dt=""r8"">0</Current><DateUtc dt:dt=""string"">2023-04-05T07:51:26Z</DateUtc></FrequencyChange></FrequencyChanges></Clock>\n";TMS_Ibrahim-52-2;75.030;1.0.0.561;1;;945748043;2.0.10.242;2.0.10.242;04/05/2023;05/04/2023 07:51;09:51:27;2.0.10.147;0;;-999999;41;36315;0;1;2331;38646;1;1;1;2;1;0;1;BlockProcFischi;BlockList;1;75;0;;-999999;33;42501;0;1;1636;44137;1;1;1;1;ProcFischi1;ListBlockFischi;49;1;1;0;1;3;Po2_B;50;2;op;3;2;33;1;49;2;0;TrialProc;899;1583;Po2_B;28;1782;1809;ListFischi1;0;;2;203;409208;11;13;1816;411024;616;1;1816;1;398;487;1200;1;1
TMS_Ibrahim;52;2;"<?xml version=""1.0""?>\n<Clock xmlns:dt=""urn:schemas-microsoft-com:datatypes""><Description dt:dt=""string"">E-Prime Primary Realtime Clock</Description><StartTime><Timestamp dt:dt=""int"">0</Timestamp><DateUtc dt:dt=""string"">2023-04-05T07:51:26Z</DateUtc></StartTime><FrequencyChanges><FrequencyChange><Frequency dt:dt=""r8"">3312861</Frequency><Timestamp dt:dt=""r8"">18124960155</Timestamp><Current dt:dt=""r8"">0</Current><DateUtc dt:dt=""string"">2023-04-05T07:51:26Z</DateUtc></FrequencyChange></FrequencyChanges></Clock>\n";TMS_Ibrahim-52-2;75.030;1.0.0.561;1;;945748043;2.0.10.242;2.0.10.242;04/05/2023;05/04/2023 07:51;09:51:27;2.0.10.147;0;;-999999;41;36315;0;1;2331;38646;1;1;1;2;1;0;1;BlockProcFischi;BlockList;1;75;0;;-999999;33;42501;0;1;1636;44137;1;1;1;1;ProcFischi1;ListBlockFischi;50;1;1;0;1;5;Po4_B;75;4;ug;5;2;56;1;50;4;1;TrialProc;417;1344;Po4_B;96;1622;1718;ListFischi1;0;;2;201;416458;11;15;1654;418112;486;1;1654;1;145;282;1168;1;1
TMS_Ibrahim;52;2;"<?xml version=""1.0""?>\n<Clock xmlns:dt=""urn:schemas-microsoft-com:datatypes""><Description dt:dt=""string"">E-Prime Primary Realtime Clock</Description><StartTime><Timestamp dt:dt=""int"">0</Timestamp><DateUtc dt:dt=""string"">2023-04-05T07:51:26Z</DateUtc></StartTime><FrequencyChanges><FrequencyChange><Frequency dt:dt=""r8"">3312861</Frequency><Timestamp dt:dt=""r8"">18124960155</Timestamp><Current dt:dt=""r8"">0</Current><DateUtc dt:dt=""string"">2023-04-05T07:51:26Z</DateUtc></FrequencyChange></FrequencyChanges></Clock>\n";TMS_Ibrahim-52-2;75.030;1.0.0.561;1;;945748043;2.0.10.242;2.0.10.242;04/05/2023;05/04/2023 07:51;09:51:27;2.0.10.147;0;;-999999;41;36315;0;1;2331;38646;1;1;1;2;1;0;1;BlockProcFischi;BlockList;1;75;0;;-999999;33;42501;0;1;1636;44137;1;1;1;1;ProcFischi1;ListBlockFischi;51;1;1;0;1;5;Po8_B;75;4;ug;5;2;58;1;51;4;1;TrialProc;495;1251;Po8_B;34;1618;1583;ListFischi1;0;;2;203;423681;12;15;1647;425328;431;1;1647;1;678;563;1216;1;1
TMS_Ibrahim;52;2;"<?xml version=""1.0""?>\n<Clock xmlns:dt=""urn:schemas-microsoft-com:datatypes""><Description dt:dt=""string"">E-Prime Primary Realtime Clock</Description><StartTime><Timestamp dt:dt=""int"">0</Timestamp><DateUtc dt:dt=""string"">2023-04-05T07:51:26Z</DateUtc></StartTime><FrequencyChanges><FrequencyChange><Frequency dt:dt=""r8"">3312861</Frequency><Timestamp dt:dt=""r8"">18124960155</Timestamp><Current dt:dt=""r8"">0</Current><DateUtc dt:dt=""string"">2023-04-05T07:51:26Z</DateUtc></FrequencyChange></FrequencyChanges></Clock>\n";TMS_Ibrahim-52-2;75.030;1.0.0.561;1;;945748043;2.0.10.242;2.0.10.242;04/05/2023;05/04/2023 07:51;09:51:27;2.0.10.147;0;;-999999;41;36315;0;1;2331;38646;1;1;1;2;1;0;1;BlockProcFischi;BlockList;1;75;0;;-999999;33;42501;0;1;1636;44137;1;1;1;1;ProcFischi1;ListBlockFischi;52;1;2;1;2;3;Prmod_B;100;3;ug;3;2;32;1;52;3;1;TrialProc;504;1316;Prmod_B;29;1678;1649;ListFischi1;0;;2;203;431588;9;13;1707;433295;475;1;1707;1;368;548;1232;1;1
TMS_Ibrahim;52;2;"<?xml version=""1.0""?>\n<Clock xmlns:dt=""urn:schemas-microsoft-com:datatypes""><Description dt:dt=""string"">E-Prime Primary Realtime Clock</Description><StartTime><Timestamp dt:dt=""int"">0</Timestamp><DateUtc dt:dt=""string"">2023-04-05T07:51:26Z</DateUtc></StartTime><FrequencyChanges><FrequencyChange><Frequency dt:dt=""r8"">3312861</Frequency><Timestamp dt:dt=""r8"">18124960155</Timestamp><Current dt:dt=""r8"">0</Current><DateUtc dt:dt=""string"">2023-04-05T07:51:26Z</DateUtc></FrequencyChange></FrequencyChanges></Clock>\n";TMS_Ibrahim-52-2;75.030;1.0.0.561;1;;945748043;2.0.10.242;2.0.10.242;04/05/2023;05/04/2023 07:51;09:51:27;2.0.10.147;0;;-999999;41;36315;0;1;2331;38646;1;1;1;2;1;0;1;BlockProcFischi;BlockList;1;75;0;;-999999;33;42501;0;1;1636;44137;1;1;1;1;ProcFischi1;ListBlockFischi;53;1;1;0;0;5;Po3_B;50;4;ug;5;2;60;1;53;4;1;TrialProc;664;1316;Po3_B;26;1608;1581;ListFischi1;0;;2;203;438812;8;15;1635;440447;467;1;1635;1;248;574;1168;1;1
TMS_Ibrahim;52;2;"<?xml version=""1.0""?>\n<Clock xmlns:dt=""urn:schemas-microsoft-com:datatypes""><Description dt:dt=""string"">E-Prime Primary Realtime Clock</Description><StartTime><Timestamp dt:dt=""int"">0</Timestamp><DateUtc dt:dt=""string"">2023-04-05T07:51:26Z</DateUtc></StartTime><FrequencyChanges><FrequencyChange><Frequency dt:dt=""r8"">3312861</Frequency><Timestamp dt:dt=""r8"">18124960155</Timestamp><Current dt:dt=""r8"">0</Current><DateUtc dt:dt=""string"">2023-04-05T07:51:26Z</DateUtc></FrequencyChange></FrequencyChanges></Clock>\n";TMS_Ibrahim-52-2;75.030;1.0.0.561;1;;945748043;2.0.10.242;2.0.10.242;04/05/2023;05/04/2023 07:51;09:51:27;2.0.10.147;0;;-999999;41;36315;0;1;2331;38646;1;1;1;2;1;0;1;BlockProcFischi;BlockList;1;75;0;;-999999;33;42501;0;1;1636;44137;1;1;1;1;ProcFischi1;ListBlockFischi;54;1;2;1;0;3;Prmod_B;75;3;ug;3;2;31;1;54;3;1;TrialProc;560;1317;Prmod_B;10;1639;1650;ListFischi1;0;;2;201;445874;10;133;2445;448319;461;1;1661;1;502;484;1200;1;1
TMS_Ibrahim;52;2;"<?xml version=""1.0""?>\n<Clock xmlns:dt=""urn:schemas-microsoft-com:datatypes""><Description dt:dt=""string"">E-Prime Primary Realtime Clock</Description><StartTime><Timestamp dt:dt=""int"">0</Timestamp><DateUtc dt:dt=""string"">2023-04-05T07:51:26Z</DateUtc></StartTime><FrequencyChanges><FrequencyChange><Frequency dt:dt=""r8"">3312861</Frequency><Timestamp dt:dt=""r8"">18124960155</Timestamp><Current dt:dt=""r8"">0</Current><DateUtc dt:dt=""string"">2023-04-05T07:51:26Z</DateUtc></FrequencyChange></FrequencyChanges></Clock>\n";TMS_Ibrahim-52-2;75.030;1.0.0.561;1;;945748043;2.0.10.242;2.0.10.242;04/05/2023;05/04/2023 07:51;09:51:27;2.0.10.147;0;;-999999;41;36315;0;1;2331;38646;1;1;1;2;1;0;1;BlockProcFischi;BlockList;1;75;0;;-999999;33;42501;0;1;1636;44137;1;1;1;1;ProcFischi1;ListBlockFischi;55;1;2;1;0;5;Prmod_B;125;1;op;5;2;16;1;55;1;0;TrialProc;727;1318;Prmod_B;91;1743;1652;ListFischi1;0;;2;203;452242;13;155;2301;454543;477;1;1773;1;227;202;1296;1;1
TMS_Ibrahim;52;2;"<?xml version=""1.0""?>\n<Clock xmlns:dt=""urn:schemas-microsoft-com:datatypes""><Description dt:dt=""string"">E-Prime Primary Realtime Clock</Description><StartTime><Timestamp dt:dt=""int"">0</Timestamp><DateUtc dt:dt=""string"">2023-04-05T07:51:26Z</DateUtc></StartTime><FrequencyChanges><FrequencyChange><Frequency dt:dt=""r8"">3312861</Frequency><Timestamp dt:dt=""r8"">18124960155</Timestamp><Current dt:dt=""r8"">0</Current><DateUtc dt:dt=""string"">2023-04-05T07:51:26Z</DateUtc></FrequencyChange></FrequencyChanges></Clock>\n";TMS_Ibrahim-52-2;75.030;1.0.0.561;1;;945748043;2.0.10.242;2.0.10.242;04/05/2023;05/04/2023 07:51;09:51:27;2.0.10.147;0;;-999999;41;36315;0;1;2331;38646;1;1;1;2;1;0;1;BlockProcFischi;BlockList;1;75;0;;-999999;33;42501;0;1;1636;44137;1;1;1;1;ProcFischi1;ListBlockFischi;56;1;1;0;0;5;Po3_B;50;4;ug;5;2;55;1;56;4;1;TrialProc;1110;1322;Po3_B;63;1651;1588;ListFischi1;0;;2;201;458756;17;15;1675;460431;539;1;1675;1;400;422;1136;1;1
TMS_Ibrahim;52;2;"<?xml version=""1.0""?>\n<Clock xmlns:dt=""urn:schemas-microsoft-com:datatypes""><Description dt:dt=""string"">E-Prime Primary Realtime Clock</Description><StartTime><Timestamp dt:dt=""int"">0</Timestamp><DateUtc dt:dt=""string"">2023-04-05T07:51:26Z</DateUtc></StartTime><FrequencyChanges><FrequencyChange><Frequency dt:dt=""r8"">3312861</Frequency><Timestamp dt:dt=""r8"">18124960155</Timestamp><Current dt:dt=""r8"">0</Current><DateUtc dt:dt=""string"">2023-04-05T07:51:26Z</DateUtc></FrequencyChange></FrequencyChanges></Clock>\n";TMS_Ibrahim-52-2;75.030;1.0.0.561;1;;945748043;2.0.10.242;2.0.10.242;04/05/2023;05/04/2023 07:51;09:51:27;2.0.10.147;0;;-999999;41;36315;0;1;2331;38646;1;1;1;2;1;0;1;BlockProcFischi;BlockList;1;75;0;;-999999;33;42501;0;1;1636;44137;1;1;1;1;ProcFischi1;ListBlockFischi;57;1;1;0;1;3;Po5_B;50;2;op;3;2;36;1;57;2;0;TrialProc;687;978;Po5_B;46;1466;1512;ListFischi1;0;;2;203;465978;6;13;1492;467470;532;1;1492;1;80;262;960;1;1
TMS_Ibrahim;52;2;"<?xml version=""1.0""?>\n<Clock xmlns:dt=""urn:schemas-microsoft-com:datatypes""><Description dt:dt=""string"">E-Prime Primary Realtime Clock</Description><StartTime><Timestamp dt:dt=""int"">0</Timestamp><DateUtc dt:dt=""string"">2023-04-05T07:51:26Z</DateUtc></StartTime><FrequencyChanges><FrequencyChange><Frequency dt:dt=""r8"">3312861</Frequency><Timestamp dt:dt=""r8"">18124960155</Timestamp><Current dt:dt=""r8"">0</Current><DateUtc dt:dt=""string"">2023-04-05T07:51:26Z</DateUtc></FrequencyChange></FrequencyChanges></Clock>\n";TMS_Ibrahim-52-2;75.030;1.0.0.561;1;;945748043;2.0.10.242;2.0.10.242;04/05/2023;05/04/2023 07:51;09:51:27;2.0.10.147;0;;-999999;41;36315;0;1;2331;38646;1;1;1;2;1;0;1;BlockProcFischi;BlockList;1;75;0;;-999999;33;42501;0;1;1636;44137;1;1;1;1;ProcFischi1;ListBlockFischi;58;1;2;1;0;5;Prmod_B;100;1;op;5;2;15;1;58;1;0;TrialProc;632;1313;Prmod_B;42;1686;1645;ListFischi1;0;;2;201;473122;6;15;1708;474830;444;1;1708;1;98;523;1264;1;1
TMS_Ibrahim;52;2;"<?xml version=""1.0""?>\n<Clock xmlns:dt=""urn:schemas-microsoft-com:datatypes""><Description dt:dt=""string"">E-Prime Primary Realtime Clock</Description><StartTime><Timestamp dt:dt=""int"">0</Timestamp><DateUtc dt:dt=""string"">2023-04-05T07:51:26Z</DateUtc></StartTime><FrequencyChanges><FrequencyChange><Frequency dt:dt=""r8"">3312861</Frequency><Timestamp dt:dt=""r8"">18124960155</Timestamp><Current dt:dt=""r8"">0</Current><DateUtc dt:dt=""string"">2023-04-05T07:51:26Z</DateUtc></FrequencyChange></FrequencyChanges></Clock>\n";TMS_Ibrahim-52-2;75.030;1.0.0.561;1;;945748043;2.0.10.242;2.0.10.242;04/05/2023;05/04/2023 07:51;09:51:27;2.0.10.147;0;;-999999;41;36315;0;1;2331;38646;1;1;1;2;1;0;1;BlockProcFischi;BlockList;1;75;0;;-999999;33;42501;0;1;1636;44137;1;1;1;1;ProcFischi1;ListBlockFischi;59;1;2;0;0;5;Pr4_B;75;1;op;5;2;8;1;59;1;0;TrialProc;531;673;Pr4_B;73;1320;1246;ListFischi1;0;;2;203;480809;9;155;1957;482766;469;1;1349;1;788;303;880;1;1
TMS_Ibrahim;52;2;"<?xml version=""1.0""?>\n<Clock xmlns:dt=""urn:schemas-microsoft-com:datatypes""><Description dt:dt=""string"">E-Prime Primary Realtime Clock</Description><StartTime><Timestamp dt:dt=""int"">0</Timestamp><DateUtc dt:dt=""string"">2023-04-05T07:51:26Z</DateUtc></StartTime><FrequencyChanges><FrequencyChange><Frequency dt:dt=""r8"">3312861</Frequency><Timestamp dt:dt=""r8"">18124960155</Timestamp><Current dt:dt=""r8"">0</Current><DateUtc dt:dt=""string"">2023-04-05T07:51:26Z</DateUtc></FrequencyChange></FrequencyChanges></Clock>\n";TMS_Ibrahim-52-2;75.030;1.0.0.561;1;;945748043;2.0.10.242;2.0.10.242;04/05/2023;05/04/2023 07:51;09:51:27;2.0.10.147;0;;-999999;41;36315;0;1;2331;38646;1;1;1;2;1;0;1;BlockProcFischi;BlockList;1;75;0;;-999999;33;42501;0;1;1636;44137;1;1;1;1;ProcFischi1;ListBlockFischi;60;1;2;0;0;3;Pr8_B;50;3;ug;3;2;21;1;60;3;1;TrialProc;555;721;Pr8_B;191;1936;1746;ListFischi1;0;;2;201;487642;13;13;1956;489598;756;1;1956;1;697;350;1200;1;1
TMS_Ibrahim;52;2;"<?xml version=""1.0""?>\n<Clock xmlns:dt=""urn:schemas-microsoft-com:datatypes""><Description dt:dt=""string"">E-Prime Primary Realtime Clock</Description><StartTime><Timestamp dt:dt=""int"">0</Timestamp><DateUtc dt:dt=""string"">2023-04-05T07:51:26Z</DateUtc></StartTime><FrequencyChanges><FrequencyChange><Frequency dt:dt=""r8"">3312861</Frequency><Timestamp dt:dt=""r8"">18124960155</Timestamp><Current dt:dt=""r8"">0</Current><DateUtc dt:dt=""string"">2023-04-05T07:51:26Z</DateUtc></FrequencyChange></FrequencyChanges></Clock>\n";TMS_Ibrahim-52-2;75.030;1.0.0.561;1;;945748043;2.0.10.242;2.0.10.242;04/05/2023;05/04/2023 07:51;09:51:27;2.0.10.147;0;;-999999;41;36315;0;1;2331;38646;1;1;1;2;1;0;1;BlockProcFischi;BlockList;1;75;0;;-999999;33;42501;0;1;1636;44137;1;1;1;1;ProcFischi1;ListBlockFischi;61;1;1;0;1;3;Po2_B;50;2;op;3;2;38;1;61;2;0;TrialProc;851;1588;Po2_B;88;1728;1815;ListFischi1;0;;2;203;494517;15;13;1753;496270;425;1;1753;1;64;489;1328;1;1
TMS_Ibrahim;52;2;"<?xml version=""1.0""?>\n<Clock xmlns:dt=""urn:schemas-microsoft-com:datatypes""><Description dt:dt=""string"">E-Prime Primary Realtime Clock</Description><StartTime><Timestamp dt:dt=""int"">0</Timestamp><DateUtc dt:dt=""string"">2023-04-05T07:51:26Z</DateUtc></StartTime><FrequencyChanges><FrequencyChange><Frequency dt:dt=""r8"">3312861</Frequency><Timestamp dt:dt=""r8"">18124960155</Timestamp><Current dt:dt=""r8"">0</Current><DateUtc dt:dt=""string"">2023-04-05T07:51:26Z</DateUtc></FrequencyChange></FrequencyChanges></Clock>\n";TMS_Ibrahim-52-2;75.030;1.0.0.561;1;;945748043;2.0.10.242;2.0.10.242;04/05/2023;05/04/2023 07:51;09:51:27;2.0.10.147;0;;-999999;41;36315;0;1;2331;38646;1;1;1;2;1;0;1;BlockProcFischi;BlockList;1;75;0;;-999999;33;42501;0;1;1636;44137;1;1;1;1;ProcFischi1;ListBlockFischi;62;1;1;0;2;3;Po4_B;50;2;op;3;2;35;1;62;2;0;TrialProc;5117;1345;Po4_B;220;1498;1718;ListFischi1;0;;1;202;502320;9;13;1517;503837;429;1;1517;1;73;373;1088;1;1
TMS_Ibrahim;52;2;"<?xml version=""1.0""?>\n<Clock xmlns:dt=""urn:schemas-microsoft-com:datatypes""><Description dt:dt=""string"">E-Prime Primary Realtime Clock</Description><StartTime><Timestamp dt:dt=""int"">0</Timestamp><DateUtc dt:dt=""string"">2023-04-05T07:51:26Z</DateUtc></StartTime><FrequencyChanges><FrequencyChange><Frequency dt:dt=""r8"">3312861</Frequency><Timestamp dt:dt=""r8"">18124960155</Timestamp><Current dt:dt=""r8"">0</Current><DateUtc dt:dt=""string"">2023-04-05T07:51:26Z</DateUtc></FrequencyChange></FrequencyChanges></Clock>\n";TMS_Ibrahim-52-2;75.030;1.0.0.561;1;;945748043;2.0.10.242;2.0.10.242;04/05/2023;05/04/2023 07:51;09:51:27;2.0.10.147;0;;-999999;41;36315;0;1;2331;38646;1;1;1;2;1;0;1;BlockProcFischi;BlockList;1;75;0;;-999999;33;42501;0;1;1636;44137;1;1;1;1;ProcFischi1;ListBlockFischi;63;1;2;0;1;3;Pr4_B;50;3;ug;3;2;24;1;63;3;1;TrialProc;399;679;Pr4_B;167;1419;1252;ListFischi1;0;;2;203;510727;12;13;1446;512173;422;1;1446;1;941;234;1024;1;1
TMS_Ibrahim;52;2;"<?xml version=""1.0""?>\n<Clock xmlns:dt=""urn:schemas-microsoft-com:datatypes""><Description dt:dt=""string"">E-Prime Primary Realtime Clock</Description><StartTime><Timestamp dt:dt=""int"">0</Timestamp><DateUtc dt:dt=""string"">2023-04-05T07:51:26Z</DateUtc></StartTime><FrequencyChanges><FrequencyChange><Frequency dt:dt=""r8"">3312861</Frequency><Timestamp dt:dt=""r8"">18124960155</Timestamp><Current dt:dt=""r8"">0</Current><DateUtc dt:dt=""string"">2023-04-05T07:51:26Z</DateUtc></FrequencyChange></FrequencyChanges></Clock>\n";TMS_Ibrahim-52-2;75.030;1.0.0.561;1;;945748043;2.0.10.242;2.0.10.242;04/05/2023;05/04/2023 07:51;09:51:27;2.0.10.147;0;;-999999;41;36315;0;1;2331;38646;1;1;1;2;1;0;1;BlockProcFischi;BlockList;1;75;0;;-999999;33;42501;0;1;1636;44137;1;1;1;1;ProcFischi1;ListBlockFischi;64;1;2;0;2;3;Pr4_B;50;3;ug;3;2;29;1;64;3;1;TrialProc;409;683;Pr4_B;209;1465;1256;ListFischi1;0;;2;201;517815;15;13;1494;519309;422;1;1494;1;695;370;1072;1;1
TMS_Ibrahim;52;4;"<?xml version=""1.0""?>\n<Clock xmlns:dt=""urn:schemas-microsoft-com:datatypes""><Description dt:dt=""string"">E-Prime Primary Realtime Clock</Description><StartTime><Timestamp dt:dt=""int"">0</Timestamp><DateUtc dt:dt=""string"">2023-04-05T08:58:03Z</DateUtc></StartTime><FrequencyChanges><FrequencyChange><Frequency dt:dt=""r8"">3312861</Frequency><Timestamp dt:dt=""r8"">31365057457</Timestamp><Current dt:dt=""r8"">0</Current><DateUtc dt:dt=""string"">2023-04-05T08:58:03Z</DateUtc></FrequencyChange></FrequencyChanges></Clock>\n";TMS_Ibrahim-52-4;75.029;1.0.0.561;1;;1300931287;2.0.10.242;2.0.10.242;04/05/2023;05/04/2023 08:58;10:58:03;2.0.10.147;0;;-999999;20;19652;0;1;3121;22773;1;1;1;2;1;0;1;BlockProcFischi;BlockList;1;50;0;;-999999;32;26358;0;1;1569;27927;1;1;1;1;ProcFischi1;ListBlockFischi;1;1;1;0;0;5;Po5_B;250;4;ug;5;2;62;1;1;4;1;TrialProc;387;1010;Po5_B;150;1353;1503;ListFischi1;0;;5;210;32833;13;15;1382;34215;406;1;1382;1;893;239;976;1;1
TMS_Ibrahim;52;4;"<?xml version=""1.0""?>\n<Clock xmlns:dt=""urn:schemas-microsoft-com:datatypes""><Description dt:dt=""string"">E-Prime Primary Realtime Clock</Description><StartTime><Timestamp dt:dt=""int"">0</Timestamp><DateUtc dt:dt=""string"">2023-04-05T08:58:03Z</DateUtc></StartTime><FrequencyChanges><FrequencyChange><Frequency dt:dt=""r8"">3312861</Frequency><Timestamp dt:dt=""r8"">31365057457</Timestamp><Current dt:dt=""r8"">0</Current><DateUtc dt:dt=""string"">2023-04-05T08:58:03Z</DateUtc></FrequencyChange></FrequencyChanges></Clock>\n";TMS_Ibrahim-52-4;75.029;1.0.0.561;1;;1300931287;2.0.10.242;2.0.10.242;04/05/2023;05/04/2023 08:58;10:58:03;2.0.10.147;0;;-999999;20;19652;0;1;3121;22773;1;1;1;2;1;0;1;BlockProcFischi;BlockList;1;50;0;;-999999;32;26358;0;1;1569;27927;1;1;1;1;ProcFischi1;ListBlockFischi;2;1;1;0;0;5;Po8_B;225;4;ug;5;2;58;1;2;4;1;TrialProc;421;1254;Po8_B;61;1527;1588;ListFischi1;0;;2;202;40189;14;15;1562;41751;378;1;1562;1;1313;512;1184;1;1
TMS_Ibrahim;52;4;"<?xml version=""1.0""?>\n<Clock xmlns:dt=""urn:schemas-microsoft-com:datatypes""><Description dt:dt=""string"">E-Prime Primary Realtime Clock</Description><StartTime><Timestamp dt:dt=""int"">0</Timestamp><DateUtc dt:dt=""string"">2023-04-05T08:58:03Z</DateUtc></StartTime><FrequencyChanges><FrequencyChange><Frequency dt:dt=""r8"">3312861</Frequency><Timestamp dt:dt=""r8"">31365057457</Timestamp><Current dt:dt=""r8"">0</Current><DateUtc dt:dt=""string"">2023-04-05T08:58:03Z</DateUtc></FrequencyChange></FrequencyChanges></Clock>\n";TMS_Ibrahim-52-4;75.029;1.0.0.561;1;;1300931287;2.0.10.242;2.0.10.242;04/05/2023;05/04/2023 08:58;10:58:03;2.0.10.147;0;;-999999;20;19652;0;1;3121;22773;1;1;1;2;1;0;1;BlockProcFischi;BlockList;1;50;0;;-999999;32;26358;0;1;1569;27927;1;1;1;1;ProcFischi1;ListBlockFischi;3;1;2;0;0;3;Pr8_B;250;3;ug;3;2;26;1;3;3;1;TrialProc;501;717;Pr8_B;71;1672;1742;ListFischi1;0;;2;203;48124;9;13;1706;49830;378;1;1706;1;765;387;1328;1;1
TMS_Ibrahim;52;4;"<?xml version=""1.0""?>\n<Clock xmlns:dt=""urn:schemas-microsoft-com:datatypes""><Description dt:dt=""string"">E-Prime Primary Realtime Clock</Description><StartTime><Timestamp dt:dt=""int"">0</Timestamp><DateUtc dt:dt=""string"">2023-04-05T08:58:03Z</DateUtc></StartTime><FrequencyChanges><FrequencyChange><Frequency dt:dt=""r8"">3312861</Frequency><Timestamp dt:dt=""r8"">31365057457</Timestamp><Current dt:dt=""r8"">0</Current><DateUtc dt:dt=""string"">2023-04-05T08:58:03Z</DateUtc></FrequencyChange></FrequencyChanges></Clock>\n";TMS_Ibrahim-52-4;75.029;1.0.0.561;1;;1300931287;2.0.10.242;2.0.10.242;04/05/2023;05/04/2023 08:58;10:58:03;2.0.10.147;0;;-999999;20;19652;0;1;3121;22773;1;1;1;2;1;0;1;BlockProcFischi;BlockList;1;50;0;;-999999;32;26358;0;1;1569;27927;1;1;1;1;ProcFischi1;ListBlockFischi;4;1;1;0;0;5;Po5_B;200;4;ug;5;2;52;1;4;4;1;TrialProc;576;980;Po5_B;66;1408;1474;ListFischi1;0;;2;201;55457;7;15;1429;56886;389;1;1429;1;286;229;1040;1;1
TMS_Ibrahim;52;4;"<?xml version=""1.0""?>\n<Clock xmlns:dt=""urn:schemas-microsoft-com:datatypes""><Description dt:dt=""string"">E-Prime Primary Realtime Clock</Description><StartTime><Timestamp dt:dt=""int"">0</Timestamp><DateUtc dt:dt=""string"">2023-04-05T08:58:03Z</DateUtc></StartTime><FrequencyChanges><FrequencyChange><Frequency dt:dt=""r8"">3312861</Frequency><Timestamp dt:dt=""r8"">31365057457</Timestamp><Current dt:dt=""r8"">0</Current><DateUtc dt:dt=""string"">2023-04-05T08:58:03Z</DateUtc></FrequencyChange></FrequencyChanges></Clock>\n";TMS_Ibrahim-52-4;75.029;1.0.0.561;1;;1300931287;2.0.10.242;2.0.10.242;04/05/2023;05/04/2023 08:58;10:58:03;2.0.10.147;0;;-999999;20;19652;0;1;3121;22773;1;1;1;2;1;0;1;BlockProcFischi;BlockList;1;50;0;;-999999;32;26358;0;1;1569;27927;1;1;1;1;ProcFischi1;ListBlockFischi;5;1;1;0;0;3;Po5_B;250;2;op;3;2;46;1;5;2;0;TrialProc;566;986;Po5_B;114;1366;1479;ListFischi1;0;;2;203;62755;12;133;1667;64422;371;1;1395;1;877;461;1024;1;1
TMS_Ibrahim;52;4;"<?xml version=""1.0""?>\n<Clock xmlns:dt=""urn:schemas-microsoft-com:datatypes""><Description dt:dt=""string"">E-Prime Primary Realtime Clock</Description><StartTime><Timestamp dt:dt=""int"">0</Timestamp><DateUtc dt:dt=""string"">2023-04-05T08:58:03Z</DateUtc></StartTime><FrequencyChanges><FrequencyChange><Frequency dt:dt=""r8"">3312861</Frequency><Timestamp dt:dt=""r8"">31365057457</Timestamp><Current dt:dt=""r8"">0</Current><DateUtc dt:dt=""string"">2023-04-05T08:58:03Z</DateUtc></FrequencyChange></FrequencyChanges></Clock>\n";TMS_Ibrahim-52-4;75.029;1.0.0.561;1;;1300931287;2.0.10.242;2.0.10.242;04/05/2023;05/04/2023 08:58;10:58:03;2.0.10.147;0;;-999999;20;19652;0;1;3121;22773;1;1;1;2;1;0;1;BlockProcFischi;BlockList;1;50;0;;-999999;32;26358;0;1;1569;27927;1;1;1;1;ProcFischi1;ListBlockFischi;6;1;1;0;0;3;Po3_B;225;2;op;3;2;34;1;6;2;0;TrialProc;829;1314;Po3_B;123;1459;1581;ListFischi1;0;;2;203;70343;8;13;1487;71830;415;1;1487;1;357;578;1072;1;1
TMS_Ibrahim;52;4;"<?xml version=""1.0""?>\n<Clock xmlns:dt=""urn:schemas-microsoft-com:datatypes""><Description dt:dt=""string"">E-Prime Primary Realtime Clock</Description><StartTime><Timestamp dt:dt=""int"">0</Timestamp><DateUtc dt:dt=""string"">2023-04-05T08:58:03Z</DateUtc></StartTime><FrequencyChanges><FrequencyChange><Frequency dt:dt=""r8"">3312861</Frequency><Timestamp dt:dt=""r8"">31365057457</Timestamp><Current dt:dt=""r8"">0</Current><DateUtc dt:dt=""string"">2023-04-05T08:58:03Z</DateUtc></FrequencyChange></FrequencyChanges></Clock>\n";TMS_Ibrahim-52-4;75.029;1.0.0.561;1;;1300931287;2.0.10.242;2.0.10.242;04/05/2023;05/04/2023 08:58;10:58:03;2.0.10.147;0;;-999999;20;19652;0;1;3121;22773;1;1;1;2;1;0;1;BlockProcFischi;BlockList;1;50;0;;-999999;32;26358;0;1;1569;27927;1;1;1;1;ProcFischi1;ListBlockFischi;7;1;2;1;0;3;Prmod_B;225;3;ug;3;2;32;1;7;3;1;TrialProc;525;1319;Prmod_B;43;1609;1652;ListFischi1;0;;2;201;77643;12;13;1643;79286;299;1;1643;1;224;336;1344;1;1
TMS_Ibrahim;52;4;"<?xml version=""1.0""?>\n<Clock xmlns:dt=""urn:schemas-microsoft-com:datatypes""><Description dt:dt=""string"">E-Prime Primary Realtime Clock</Description><StartTime><Timestamp dt:dt=""int"">0</Timestamp><DateUtc dt:dt=""string"">2023-04-05T08:58:03Z</DateUtc></StartTime><FrequencyChanges><FrequencyChange><Frequency dt:dt=""r8"">3312861</Frequency><Timestamp dt:dt=""r8"">31365057457</Timestamp><Current dt:dt=""r8"">0</Current><DateUtc dt:dt=""string"">2023-04-05T08:58:03Z</DateUtc></FrequencyChange></FrequencyChanges></Clock>\n";TMS_Ibrahim-52-4;75.029;1.0.0.561;1;;1300931287;2.0.10.242;2.0.10.242;04/05/2023;05/04/2023 08:58;10:58:03;2.0.10.147;0;;-999999;20;19652;0;1;3121;22773;1;1;1;2;1;0;1;BlockProcFischi;BlockList;1;50;0;;-999999;32;26358;0;1;1569;27927;1;1;1;1;ProcFischi1;ListBlockFischi;8;0;2;0;0;5;Pr8_B;;1;op;1;2;10;1;8;1;0;TrialProc;516;712;Pr8_B;43;1609;1739;ListFischi1;0;;2;203;84940;6;15;1913;86853;697;1;1;1;57;589;-696;1;0
TMS_Ibrahim;52;4;"<?xml version=""1.0""?>\n<Clock xmlns:dt=""urn:schemas-microsoft-com:datatypes""><Description dt:dt=""string"">E-Prime Primary Realtime Clock</Description><StartTime><Timestamp dt:dt=""int"">0</Timestamp><DateUtc dt:dt=""string"">2023-04-05T08:58:03Z</DateUtc></StartTime><FrequencyChanges><FrequencyChange><Frequency dt:dt=""r8"">3312861</Frequency><Timestamp dt:dt=""r8"">31365057457</Timestamp><Current dt:dt=""r8"">0</Current><DateUtc dt:dt=""string"">2023-04-05T08:58:03Z</DateUtc></FrequencyChange></FrequencyChanges></Clock>\n";TMS_Ibrahim-52-4;75.029;1.0.0.561;1;;1300931287;2.0.10.242;2.0.10.242;04/05/2023;05/04/2023 08:58;10:58:03;2.0.10.147;0;;-999999;20;19652;0;1;3121;22773;1;1;1;2;1;0;1;BlockProcFischi;BlockList;1;50;0;;-999999;32;26358;0;1;1569;27927;1;1;1;1;ProcFischi1;ListBlockFischi;9;1;1;0;0;3;Po3_B;200;2;op;3;2;44;1;9;2;0;TrialProc;503;1315;Po3_B;131;1450;1581;ListFischi1;0;;2;201;91882;8;13;1483;93365;459;1;1483;1;54;509;1024;1;1
TMS_Ibrahim;52;4;"<?xml version=""1.0""?>\n<Clock xmlns:dt=""urn:schemas-microsoft-com:datatypes""><Description dt:dt=""string"">E-Prime Primary Realtime Clock</Description><StartTime><Timestamp dt:dt=""int"">0</Timestamp><DateUtc dt:dt=""string"">2023-04-05T08:58:03Z</DateUtc></StartTime><FrequencyChanges><FrequencyChange><Frequency dt:dt=""r8"">3312861</Frequency><Timestamp dt:dt=""r8"">31365057457</Timestamp><Current dt:dt=""r8"">0</Current><DateUtc dt:dt=""string"">2023-04-05T08:58:03Z</DateUtc></FrequencyChange></FrequencyChanges></Clock>\n";TMS_Ibrahim-52-4;75.029;1.0.0.561;1;;1300931287;2.0.10.242;2.0.10.242;04/05/2023;05/04/2023 08:58;10:58:03;2.0.10.147;0;;-999999;20;19652;0;1;3121;22773;1;1;1;2;1;0;1;BlockProcFischi;BlockList;1;50;0;;-999999;32;26358;0;1;1569;27927;1;1;1;1;ProcFischi1;ListBlockFischi;10;1;1;0;0;3;Po2_B;175;2;op;3;2;38;1;10;2;0;TrialProc;554;1582;Po2_B;138;1671;1809;ListFischi1;0;;2;203;100051;9;13;1698;101749;466;1;1698;1;132;530;1232;1;1
TMS_Ibrahim;52;4;"<?xml version=""1.0""?>\n<Clock xmlns:dt=""urn:schemas-microsoft-com:datatypes""><Description dt:dt=""string"">E-Prime Primary Realtime Clock</Description><StartTime><Timestamp dt:dt=""int"">0</Timestamp><DateUtc dt:dt=""string"">2023-04-05T08:58:03Z</DateUtc></StartTime><FrequencyChanges><FrequencyChange><Frequency dt:dt=""r8"">3312861</Frequency><Timestamp dt:dt=""r8"">31365057457</Timestamp><Current dt:dt=""r8"">0</Current><DateUtc dt:dt=""string"">2023-04-05T08:58:03Z</DateUtc></FrequencyChange></FrequencyChanges></Clock>\n";TMS_Ibrahim-52-4;75.029;1.0.0.561;1;;1300931287;2.0.10.242;2.0.10.242;04/05/2023;05/04/2023 08:58;10:58:03;2.0.10.147;0;;-999999;20;19652;0;1;3121;22773;1;1;1;2;1;0;1;BlockProcFischi;BlockList;1;50;0;;-999999;32;26358;0;1;1569;27927;1;1;1;1;ProcFischi1;ListBlockFischi;11;1;2;0;0;5;Pr5_B;250;1;op;5;2;9;1;11;1;0;TrialProc;456;672;Pr5_B;117;1390;1273;ListFischi1;0;;2;201;107492;5;15;1409;108901;17;1;1409;1;1077;560;1392;1;1
TMS_Ibrahim;52;4;"<?xml version=""1.0""?>\n<Clock xmlns:dt=""urn:schemas-microsoft-com:datatypes""><Description dt:dt=""string"">E-Prime Primary Realtime Clock</Description><StartTime><Timestamp dt:dt=""int"">0</Timestamp><DateUtc dt:dt=""string"">2023-04-05T08:58:03Z</DateUtc></StartTime><FrequencyChanges><FrequencyChange><Frequency dt:dt=""r8"">3312861</Frequency><Timestamp dt:dt=""r8"">31365057457</Timestamp><Current dt:dt=""r8"">0</Current><DateUtc dt:dt=""string"">2023-04-05T08:58:03Z</DateUtc></FrequencyChange></FrequencyChanges></Clock>\n";TMS_Ibrahim-52-4;75.029;1.0.0.561;1;;1300931287;2.0.10.242;2.0.10.242;04/05/2023;05/04/2023 08:58;10:58:03;2.0.10.147;0;;-999999;20;19652;0;1;3121;22773;1;1;1;2;1;0;1;BlockProcFischi;BlockList;1;50;0;;-999999;32;26358;0;1;1569;27927;1;1;1;1;ProcFischi1;ListBlockFischi;12;1;1;0;0;5;Po8_B;175;4;ug;5;2;53;1;12;4;1;TrialProc;1710;1247;Po8_B;72;1509;1581;ListFischi1;0;;2;203;114621;6;15;1528;116149;408;1;1528;1;210;363;1120;1;1
TMS_Ibrahim;52;4;"<?xml version=""1.0""?>\n<Clock xmlns:dt=""urn:schemas-microsoft-com:datatypes""><Description dt:dt=""string"">E-Prime Primary Realtime Clock</Description><StartTime><Timestamp dt:dt=""int"">0</Timestamp><DateUtc dt:dt=""string"">2023-04-05T08:58:03Z</DateUtc></StartTime><FrequencyChanges><FrequencyChange><Frequency dt:dt=""r8"">3312861</Frequency><Timestamp dt:dt=""r8"">31365057457</Timestamp><Current dt:dt=""r8"">0</Current><DateUtc dt:dt=""string"">2023-04-05T08:58:03Z</DateUtc></FrequencyChange></FrequencyChanges></Clock>\n";TMS_Ibrahim-52-4;75.029;1.0.0.561;1;;1300931287;2.0.10.242;2.0.10.242;04/05/2023;05/04/2023 08:58;10:58:03;2.0.10.147;0;;-999999;20;19652;0;1;3121;22773;1;1;1;2;1;0;1;BlockProcFischi;BlockList;1;50;0;;-999999;32;26358;0;1;1569;27927;1;1;1;1;ProcFischi1;ListBlockFischi;13;1;2;0;0;3;Pr3_B;200;3;ug;3;2;18;1;13;3;1;TrialProc;516;724;Pr3_B;17;1739;1722;ListFischi1;0;;2;201;121994;17;13;1770;123764;426;1;1770;1;248;245;1344;1;1
TMS_Ibrahim;52;4;"<?xml version=""1.0""?>\n<Clock xmlns:dt=""urn:schemas-microsoft-com:datatypes""><Description dt:dt=""string"">E-Prime Primary Realtime Clock</Description><StartTime><Timestamp dt:dt=""int"">0</Timestamp><DateUtc dt:dt=""string"">2023-04-05T08:58:03Z</DateUtc></StartTime><FrequencyChanges><FrequencyChange><Frequency dt:dt=""r8"">3312861</Frequency><Timestamp dt:dt=""r8"">31365057457</Timestamp><Current dt:dt=""r8"">0</Current><DateUtc dt:dt=""string"">2023-04-05T08:58:03Z</DateUtc></FrequencyChange></FrequencyChanges></Clock>\n";TMS_Ibrahim-52-4;75.029;1.0.0.561;1;;1300931287;2.0.10.242;2.0.10.242;04/05/2023;05/04/2023 08:58;10:58:03;2.0.10.147;0;;-999999;20;19652;0;1;3121;22773;1;1;1;2;1;0;1;BlockProcFischi;BlockList;1;50;0;;-999999;32;26358;0;1;1569;27927;1;1;1;1;ProcFischi1;ListBlockFischi;14;1;2;1;0;5;Prmod_B;225;1;op;5;2;15;1;14;1;0;TrialProc;1248;1316;Prmod_B;77;1726;1649;ListFischi1;0;;2;203;129413;9;15;1759;131172;463;1;1759;1;74;329;1296;1;1
TMS_Ibrahim;52;4;"<?xml version=""1.0""?>\n<Clock xmlns:dt=""urn:schemas-microsoft-com:datatypes""><Description dt:dt=""string"">E-Prime Primary Realtime Clock</Description><StartTime><Timestamp dt:dt=""int"">0</Timestamp><DateUtc dt:dt=""string"">2023-04-05T08:58:03Z</DateUtc></StartTime><FrequencyChanges><FrequencyChange><Frequency dt:dt=""r8"">3312861</Frequency><Timestamp dt:dt=""r8"">31365057457</Timestamp><Current dt:dt=""r8"">0</Current><DateUtc dt:dt=""string"">2023-04-05T08:58:03Z</DateUtc></FrequencyChange></FrequencyChanges></Clock>\n";TMS_Ibrahim-52-4;75.029;1.0.0.561;1;;1300931287;2.0.10.242;2.0.10.242;04/05/2023;05/04/2023 08:58;10:58:03;2.0.10.147;0;;-999999;20;19652;0;1;3121;22773;1;1;1;2;1;0;1;BlockProcFischi;BlockList;1;50;0;;-999999;32;26358;0;1;1569;27927;1;1;1;1;ProcFischi1;ListBlockFischi;15;1;1;1;0;3;Pomod_B;150;2;op;3;2;48;1;15;2;0;TrialProc;490;1320;Pomod_B;46;1725;1679;ListFischi1;0;;2;201;136405;14;13;1759;138164;527;1;1759;1;1331;541;1232;1;1
TMS_Ibrahim;52;4;"<?xml version=""1.0""?>\n<Clock xmlns:dt=""urn:schemas-microsoft-com:datatypes""><Description dt:dt=""string"">E-Prime Primary Realtime Clock</Description><StartTime><Timestamp dt:dt=""int"">0</Timestamp><DateUtc dt:dt=""string"">2023-04-05T08:58:03Z</DateUtc></StartTime><FrequencyChanges><FrequencyChange><Frequency dt:dt=""r8"">3312861</Frequency><Timestamp dt:dt=""r8"">31365057457</Timestamp><Current dt:dt=""r8"">0</Current><DateUtc dt:dt=""string"">2023-04-05T08:58:03Z</DateUtc></FrequencyChange></FrequencyChanges></Clock>\n";TMS_Ibrahim-52-4;75.029;1.0.0.561;1;;1300931287;2.0.10.242;2.0.10.242;04/05/2023;05/04/2023 08:58;10:58:03;2.0.10.147;0;;-999999;20;19652;0;1;3121;22773;1;1;1;2;1;0;1;BlockProcFischi;BlockList;1;50;0;;-999999;32;26358;0;1;1569;27927;1;1;1;1;ProcFischi1;ListBlockFischi;16;1;1;0;0;5;Po4_B;150;4;ug;5;2;61;1;16;4;1;TrialProc;455;1378;Po4_B;177;1535;1711;ListFischi1;0;;2;203;143637;6;155;1695;145332;527;1;1567;1;39;333;1040;1;1
TMS_Ibrahim;52;4;"<?xml version=""1.0""?>\n<Clock xmlns:dt=""urn:schemas-microsoft-com:datatypes""><Description dt:dt=""string"">E-Prime Primary Realtime Clock</Description><StartTime><Timestamp dt:dt=""int"">0</Timestamp><DateUtc dt:dt=""string"">2023-04-05T08:58:03Z</DateUtc></StartTime><FrequencyChanges><FrequencyChange><Frequency dt:dt=""r8"">3312861</Frequency><Timestamp dt:dt=""r8"">31365057457</Timestamp><Current dt:dt=""r8"">0</Current><DateUtc dt:dt=""string"">2023-04-05T08:58:03Z</DateUtc></FrequencyChange></FrequencyChanges></Clock>\n";TMS_Ibrahim-52-4;75.029;1.0.0.561;1;;1300931287;2.0.10.242;2.0.10.242;04/05/2023;05/04/2023 08:58;10:58:03;2.0.10.147;0;;-999999;20;19652;0;1;3121;22773;1;1;1;2;1;0;1;BlockProcFischi;BlockList;1;50;0;;-999999;32;26358;0;1;1569;27927;1;1;1;1;ProcFischi1;ListBlockFischi;17;1;2;1;0;3;Prmod_B;175;3;ug;3;2;31;1;17;3;1;TrialProc;333;1314;Prmod_B;32;1616;1648;ListFischi1;0;;2;203;152991;8;13;1636;154627;404;1;1636;1;555;552;1232;1;1
TMS_Ibrahim;52;4;"<?xml version=""1.0""?>\n<Clock xmlns:dt=""urn:schemas-microsoft-com:datatypes""><Description dt:dt=""string"">E-Prime Primary Realtime Clock</Description><StartTime><Timestamp dt:dt=""int"">0</Timestamp><DateUtc dt:dt=""string"">2023-04-05T08:58:03Z</DateUtc></StartTime><FrequencyChanges><FrequencyChange><Frequency dt:dt=""r8"">3312861</Frequency><Timestamp dt:dt=""r8"">31365057457</Timestamp><Current dt:dt=""r8"">0</Current><DateUtc dt:dt=""string"">2023-04-05T08:58:03Z</DateUtc></FrequencyChange></FrequencyChanges></Clock>\n";TMS_Ibrahim-52-4;75.029;1.0.0.561;1;;1300931287;2.0.10.242;2.0.10.242;04/05/2023;05/04/2023 08:58;10:58:03;2.0.10.147;0;;-999999;20;19652;0;1;3121;22773;1;1;1;2;1;0;1;BlockProcFischi;BlockList;1;50;0;;-999999;32;26358;0;1;1569;27927;1;1;1;1;ProcFischi1;ListBlockFischi;18;1;1;0;0;3;Po2_B;125;2;op;3;2;43;1;18;2;0;TrialProc;1332;1585;Po2_B;99;1712;1811;ListFischi1;0;;2;201;160079;11;13;1732;161811;468;1;1732;1;140;348;1264;1;1
TMS_Ibrahim;52;4;"<?xml version=""1.0""?>\n<Clock xmlns:dt=""urn:schemas-microsoft-com:datatypes""><Description dt:dt=""string"">E-Prime Primary Realtime Clock</Description><StartTime><Timestamp dt:dt=""int"">0</Timestamp><DateUtc dt:dt=""string"">2023-04-05T08:58:03Z</DateUtc></StartTime><FrequencyChanges><FrequencyChange><Frequency dt:dt=""r8"">3312861</Frequency><Timestamp dt:dt=""r8"">31365057457</Timestamp><Current dt:dt=""r8"">0</Current><DateUtc dt:dt=""string"">2023-04-05T08:58:03Z</DateUtc></FrequencyChange></FrequencyChanges></Clock>\n";TMS_Ibrahim-52-4;75.029;1.0.0.561;1;;1300931287;2.0.10.242;2.0.10.242;04/05/2023;05/04/2023 08:58;10:58:03;2.0.10.147;0;;-999999;20;19652;0;1;3121;22773;1;1;1;2;1;0;1;BlockProcFischi;BlockList;1;50;0;;-999999;32;26358;0;1;1569;27927;1;1;1;1;ProcFischi1;ListBlockFischi;19;1;2;0;0;5;Pr8_B;200;1;op;5;2;5;1;19;1;0;TrialProc;424;713;Pr8_B;181;1920;1739;ListFischi1;0;;2;203;167507;7;15;1952;169459;640;1;1952;1;272;566;1312;1;1
TMS_Ibrahim;52;4;"<?xml version=""1.0""?>\n<Clock xmlns:dt=""urn:schemas-microsoft-com:datatypes""><Description dt:dt=""string"">E-Prime Primary Realtime Clock</Description><StartTime><Timestamp dt:dt=""int"">0</Timestamp><DateUtc dt:dt=""string"">2023-04-05T08:58:03Z</DateUtc></StartTime><FrequencyChanges><FrequencyChange><Frequency dt:dt=""r8"">3312861</Frequency><Timestamp dt:dt=""r8"">31365057457</Timestamp><Current dt:dt=""r8"">0</Current><DateUtc dt:dt=""string"">2023-04-05T08:58:03Z</DateUtc></FrequencyChange></FrequencyChanges></Clock>\n";TMS_Ibrahim-52-4;75.029;1.0.0.561;1;;1300931287;2.0.10.242;2.0.10.242;04/05/2023;05/04/2023 08:58;10:58:03;2.0.10.147;0;;-999999;20;19652;0;1;3121;22773;1;1;1;2;1;0;1;BlockProcFischi;BlockList;1;50;0;;-999999;32;26358;0;1;1569;27927;1;1;1;1;ProcFischi1;ListBlockFischi;20;1;2;0;0;3;Pr4_B;150;3;ug;3;2;29;1;20;3;1;TrialProc;677;676;Pr4_B;98;1347;1249;ListFischi1;0;;2;203;175461;10;13;1374;176835;382;1;1374;1;605;415;992;1;1
TMS_Ibrahim;52;4;"<?xml version=""1.0""?>\n<Clock xmlns:dt=""urn:schemas-microsoft-com:datatypes""><Description dt:dt=""string"">E-Prime Primary Realtime Clock</Description><StartTime><Timestamp dt:dt=""int"">0</Timestamp><DateUtc dt:dt=""string"">2023-04-05T08:58:03Z</DateUtc></StartTime><FrequencyChanges><FrequencyChange><Frequency dt:dt=""r8"">3312861</Frequency><Timestamp dt:dt=""r8"">31365057457</Timestamp><Current dt:dt=""r8"">0</Current><DateUtc dt:dt=""string"">2023-04-05T08:58:03Z</DateUtc></FrequencyChange></FrequencyChanges></Clock>\n";TMS_Ibrahim-52-4;75.029;1.0.0.561;1;;1300931287;2.0.10.242;2.0.10.242;04/05/2023;05/04/2023 08:58;10:58:03;2.0.10.147;0;;-999999;20;19652;0;1;3121;22773;1;1;1;2;1;0;1;BlockProcFischi;BlockList;1;50;0;;-999999;32;26358;0;1;1569;27927;1;1;1;1;ProcFischi1;ListBlockFischi;21;1;2;0;0;5;Pr3_B;200;1;op;5;2;7;1;21;1;0;TrialProc;407;717;Pr3_B;69;1786;1717;ListFischi1;0;;2;201;182643;11;15;1807;184450;624;1;1807;1;263;522;1183;1;1
TMS_Ibrahim;52;4;"<?xml version=""1.0""?>\n<Clock xmlns:dt=""urn:schemas-microsoft-com:datatypes""><Description dt:dt=""string"">E-Prime Primary Realtime Clock</Description><StartTime><Timestamp dt:dt=""int"">0</Timestamp><DateUtc dt:dt=""string"">2023-04-05T08:58:03Z</DateUtc></StartTime><FrequencyChanges><FrequencyChange><Frequency dt:dt=""r8"">3312861</Frequency><Timestamp dt:dt=""r8"">31365057457</Timestamp><Current dt:dt=""r8"">0</Current><DateUtc dt:dt=""string"">2023-04-05T08:58:03Z</DateUtc></FrequencyChange></FrequencyChanges></Clock>\n";TMS_Ibrahim-52-4;75.029;1.0.0.561;1;;1300931287;2.0.10.242;2.0.10.242;04/05/2023;05/04/2023 08:58;10:58:03;2.0.10.147;0;;-999999;20;19652;0;1;3121;22773;1;1;1;2;1;0;1;BlockProcFischi;BlockList;1;50;0;;-999999;32;26358;0;1;1569;27927;1;1;1;1;ProcFischi1;ListBlockFischi;22;1;2;0;0;3;Pr5_B;125;3;ug;3;2;20;1;22;3;1;TrialProc;444;676;Pr5_B;119;1394;1276;ListFischi1;0;;2;203;189923;9;133;1743;191666;367;1;1423;1;219;347;1056;1;1
TMS_Ibrahim;52;4;"<?xml version=""1.0""?>\n<Clock xmlns:dt=""urn:schemas-microsoft-com:datatypes""><Description dt:dt=""string"">E-Prime Primary Realtime Clock</Description><StartTime><Timestamp dt:dt=""int"">0</Timestamp><DateUtc dt:dt=""string"">2023-04-05T08:58:03Z</DateUtc></StartTime><FrequencyChanges><FrequencyChange><Frequency dt:dt=""r8"">3312861</Frequency><Timestamp dt:dt=""r8"">31365057457</Timestamp><Current dt:dt=""r8"">0</Current><DateUtc dt:dt=""string"">2023-04-05T08:58:03Z</DateUtc></FrequencyChange></FrequencyChanges></Clock>\n";TMS_Ibrahim-52-4;75.029;1.0.0.561;1;;1300931287;2.0.10.242;2.0.10.242;04/05/2023;05/04/2023 08:58;10:58:03;2.0.10.147;0;;-999999;20;19652;0;1;3121;22773;1;1;1;2;1;0;1;BlockProcFischi;BlockList;1;50;0;;-999999;32;26358;0;1;1569;27927;1;1;1;1;ProcFischi1;ListBlockFischi;23;1;2;0;0;3;Pr2_B;125;3;ug;3;2;27;1;23;3;1;TrialProc;408;717;Pr2_B;47;1297;1251;ListFischi1;0;;2;201;196732;10;13;1318;198050;454;1;1318;1;78;390;864;1;1
TMS_Ibrahim;52;4;"<?xml version=""1.0""?>\n<Clock xmlns:dt=""urn:schemas-microsoft-com:datatypes""><Description dt:dt=""string"">E-Prime Primary Realtime Clock</Description><StartTime><Timestamp dt:dt=""int"">0</Timestamp><DateUtc dt:dt=""string"">2023-04-05T08:58:03Z</DateUtc></StartTime><FrequencyChanges><FrequencyChange><Frequency dt:dt=""r8"">3312861</Frequency><Timestamp dt:dt=""r8"">31365057457</Timestamp><Current dt:dt=""r8"">0</Current><DateUtc dt:dt=""string"">2023-04-05T08:58:03Z</DateUtc></FrequencyChange></FrequencyChanges></Clock>\n";TMS_Ibrahim-52-4;75.029;1.0.0.561;1;;1300931287;2.0.10.242;2.0.10.242;04/05/2023;05/04/2023 08:58;10:58:03;2.0.10.147;0;;-999999;20;19652;0;1;3121;22773;1;1;1;2;1;0;1;BlockProcFischi;BlockList;1;50;0;;-999999;32;26358;0;1;1569;27927;1;1;1;1;ProcFischi1;ListBlockFischi;24;1;1;0;0;3;Po2_B;100;2;op;3;2;33;1;24;2;0;TrialProc;341;1584;Po2_B;75;1737;1812;ListFischi1;0;;2;203;204194;12;13;1760;205954;496;1;1760;1;139;478;1264;1;1
TMS_Ibrahim;52;4;"<?xml version=""1.0""?>\n<Clock xmlns:dt=""urn:schemas-microsoft-com:datatypes""><Description dt:dt=""string"">E-Prime Primary Realtime Clock</Description><StartTime><Timestamp dt:dt=""int"">0</Timestamp><DateUtc dt:dt=""string"">2023-04-05T08:58:03Z</DateUtc></StartTime><FrequencyChanges><FrequencyChange><Frequency dt:dt=""r8"">3312861</Frequency><Timestamp dt:dt=""r8"">31365057457</Timestamp><Current dt:dt=""r8"">0</Current><DateUtc dt:dt=""string"">2023-04-05T08:58:03Z</DateUtc></FrequencyChange></FrequencyChanges></Clock>\n";TMS_Ibrahim-52-4;75.029;1.0.0.561;1;;1300931287;2.0.10.242;2.0.10.242;04/05/2023;05/04/2023 08:58;10:58:03;2.0.10.147;0;;-999999;20;19652;0;1;3121;22773;1;1;1;2;1;0;1;BlockProcFischi;BlockList;1;50;0;;-999999;32;26358;0;1;1569;27927;1;1;1;1;ProcFischi1;ListBlockFischi;25;1;1;1;0;3;Pomod_B;100;2;op;3;2;47;1;25;2;0;TrialProc;418;1321;Pomod_B;27;1709;1681;ListFischi1;0;;2;201;211495;15;13;1739;213234;443;1;1739;1;115;381;1296;1;1
TMS_Ibrahim;52;4;"<?xml version=""1.0""?>\n<Clock xmlns:dt=""urn:schemas-microsoft-com:datatypes""><Description dt:dt=""string"">E-Prime Primary Realtime Clock</Description><StartTime><Timestamp dt:dt=""int"">0</Timestamp><DateUtc dt:dt=""string"">2023-04-05T08:58:03Z</DateUtc></StartTime><FrequencyChanges><FrequencyChange><Frequency dt:dt=""r8"">3312861</Frequency><Timestamp dt:dt=""r8"">31365057457</Timestamp><Current dt:dt=""r8"">0</Current><DateUtc dt:dt=""string"">2023-04-05T08:58:03Z</DateUtc></FrequencyChange></FrequencyChanges></Clock>\n";TMS_Ibrahim-52-4;75.029;1.0.0.561;1;;1300931287;2.0.10.242;2.0.10.242;04/05/2023;05/04/2023 08:58;10:58:03;2.0.10.147;0;;-999999;20;19652;0;1;3121;22773;1;1;1;2;1;0;1;BlockProcFischi;BlockList;1;50;0;;-999999;32;26358;0;1;1569;27927;1;1;1;1;ProcFischi1;ListBlockFischi;26;0;2;0;0;3;Pr4_B;;3;ug;1;2;19;1;26;3;1;TrialProc;880;676;Pr4_B;27;1709;1250;ListFischi1;0;;2;203;218498;9;13;1391;219889;495;1;1;1;65;355;-494;1;0
TMS_Ibrahim;52;4;"<?xml version=""1.0""?>\n<Clock xmlns:dt=""urn:schemas-microsoft-com:datatypes""><Description dt:dt=""string"">E-Prime Primary Realtime Clock</Description><StartTime><Timestamp dt:dt=""int"">0</Timestamp><DateUtc dt:dt=""string"">2023-04-05T08:58:03Z</DateUtc></StartTime><FrequencyChanges><FrequencyChange><Frequency dt:dt=""r8"">3312861</Frequency><Timestamp dt:dt=""r8"">31365057457</Timestamp><Current dt:dt=""r8"">0</Current><DateUtc dt:dt=""string"">2023-04-05T08:58:03Z</DateUtc></FrequencyChange></FrequencyChanges></Clock>\n";TMS_Ibrahim-52-4;75.029;1.0.0.561;1;;1300931287;2.0.10.242;2.0.10.242;04/05/2023;05/04/2023 08:58;10:58:03;2.0.10.147;0;;-999999;20;19652;0;1;3121;22773;1;1;1;2;1;0;1;BlockProcFischi;BlockList;1;50;0;;-999999;32;26358;0;1;1569;27927;1;1;1;1;ProcFischi1;ListBlockFischi;27;1;2;0;0;5;Pr4_B;175;1;op;5;2;3;1;27;1;0;TrialProc;330;683;Pr4_B;88;1342;1255;ListFischi1;0;;2;201;225704;14;15;1369;227073;409;1;1369;1;278;440;960;1;1
TMS_Ibrahim;52;4;"<?xml version=""1.0""?>\n<Clock xmlns:dt=""urn:schemas-microsoft-com:datatypes""><Description dt:dt=""string"">E-Prime Primary Realtime Clock</Description><StartTime><Timestamp dt:dt=""int"">0</Timestamp><DateUtc dt:dt=""string"">2023-04-05T08:58:03Z</DateUtc></StartTime><FrequencyChanges><FrequencyChange><Frequency dt:dt=""r8"">3312861</Frequency><Timestamp dt:dt=""r8"">31365057457</Timestamp><Current dt:dt=""r8"">0</Current><DateUtc dt:dt=""string"">2023-04-05T08:58:03Z</DateUtc></FrequencyChange></FrequencyChanges></Clock>\n";TMS_Ibrahim-52-4;75.029;1.0.0.561;1;;1300931287;2.0.10.242;2.0.10.242;04/05/2023;05/04/2023 08:58;10:58:03;2.0.10.147;0;;-999999;20;19652;0;1;3121;22773;1;1;1;2;1;0;1;BlockProcFischi;BlockList;1;50;0;;-999999;32;26358;0;1;1569;27927;1;1;1;1;ProcFischi1;ListBlockFischi;28;1;2;0;0;3;Pr3_B;100;3;ug;3;2;23;1;28;3;1;TrialProc;326;714;Pr3_B;25;1738;1713;ListFischi1;0;;2;203;232948;7;13;1773;234721;621;1;1773;1;215;556;1152;1;1
TMS_Ibrahim;52;4;"<?xml version=""1.0""?>\n<Clock xmlns:dt=""urn:schemas-microsoft-com:datatypes""><Description dt:dt=""string"">E-Prime Primary Realtime Clock</Description><StartTime><Timestamp dt:dt=""int"">0</Timestamp><DateUtc dt:dt=""string"">2023-04-05T08:58:03Z</DateUtc></StartTime><FrequencyChanges><FrequencyChange><Frequency dt:dt=""r8"">3312861</Frequency><Timestamp dt:dt=""r8"">31365057457</Timestamp><Current dt:dt=""r8"">0</Current><DateUtc dt:dt=""string"">2023-04-05T08:58:03Z</DateUtc></FrequencyChange></FrequencyChanges></Clock>\n";TMS_Ibrahim-52-4;75.029;1.0.0.561;1;;1300931287;2.0.10.242;2.0.10.242;04/05/2023;05/04/2023 08:58;10:58:03;2.0.10.147;0;;-999999;20;19652;0;1;3121;22773;1;1;1;2;1;0;1;BlockProcFischi;BlockList;1;50;0;;-999999;32;26358;0;1;1569;27927;1;1;1;1;ProcFischi1;ListBlockFischi;29;1;1;0;0;3;Po4_B;75;2;op;3;2;35;1;29;2;0;TrialProc;815;1348;Po4_B;218;1503;1721;ListFischi1;0;;1;202;240326;13;13;1531;241857;459;1;1531;1;1137;501;1072;1;1
TMS_Ibrahim;52;4;"<?xml version=""1.0""?>\n<Clock xmlns:dt=""urn:schemas-microsoft-com:datatypes""><Description dt:dt=""string"">E-Prime Primary Realtime Clock</Description><StartTime><Timestamp dt:dt=""int"">0</Timestamp><DateUtc dt:dt=""string"">2023-04-05T08:58:03Z</DateUtc></StartTime><FrequencyChanges><FrequencyChange><Frequency dt:dt=""r8"">3312861</Frequency><Timestamp dt:dt=""r8"">31365057457</Timestamp><Current dt:dt=""r8"">0</Current><DateUtc dt:dt=""string"">2023-04-05T08:58:03Z</DateUtc></FrequencyChange></FrequencyChanges></Clock>\n";TMS_Ibrahim-52-4;75.029;1.0.0.561;1;;1300931287;2.0.10.242;2.0.10.242;04/05/2023;05/04/2023 08:58;10:58:03;2.0.10.147;0;;-999999;20;19652;0;1;3121;22773;1;1;1;2;1;0;1;BlockProcFischi;BlockList;1;50;0;;-999999;32;26358;0;1;1569;27927;1;1;1;1;ProcFischi1;ListBlockFischi;30;1;1;0;1;5;Po2_B;150;4;ug;5;2;54;1;30;4;1;TrialProc;414;1579;Po2_B;21;1828;1806;ListFischi1;0;;2;203;247622;7;15;1851;249473;363;1;1851;1;140;593;1488;1;1
TMS_Ibrahim;52;4;"<?xml version=""1.0""?>\n<Clock xmlns:dt=""urn:schemas-microsoft-com:datatypes""><Description dt:dt=""string"">E-Prime Primary Realtime Clock</Description><StartTime><Timestamp dt:dt=""int"">0</Timestamp><DateUtc dt:dt=""string"">2023-04-05T08:58:03Z</DateUtc></StartTime><FrequencyChanges><FrequencyChange><Frequency dt:dt=""r8"">3312861</Frequency><Timestamp dt:dt=""r8"">31365057457</Timestamp><Current dt:dt=""r8"">0</Current><DateUtc dt:dt=""string"">2023-04-05T08:58:03Z</DateUtc></FrequencyChange></FrequencyChanges></Clock>\n";TMS_Ibrahim-52-4;75.029;1.0.0.561;1;;1300931287;2.0.10.242;2.0.10.242;04/05/2023;05/04/2023 08:58;10:58:03;2.0.10.147;0;;-999999;20;19652;0;1;3121;22773;1;1;1;2;1;0;1;BlockProcFischi;BlockList;1;50;0;;-999999;32;26358;0;1;1569;27927;1;1;1;1;ProcFischi1;ListBlockFischi;31;1;2;0;0;5;Pr4_B;150;1;op;5;2;13;1;31;1;0;TrialProc;340;682;Pr4_B;109;1364;1255;ListFischi1;0;;2;201;254706;14;15;1390;256096;351;1;1390;1;153;325;1039;1;1
TMS_Ibrahim;52;4;"<?xml version=""1.0""?>\n<Clock xmlns:dt=""urn:schemas-microsoft-com:datatypes""><Description dt:dt=""string"">E-Prime Primary Realtime Clock</Description><StartTime><Timestamp dt:dt=""int"">0</Timestamp><DateUtc dt:dt=""string"">2023-04-05T08:58:03Z</DateUtc></StartTime><FrequencyChanges><FrequencyChange><Frequency dt:dt=""r8"">3312861</Frequency><Timestamp dt:dt=""r8"">31365057457</Timestamp><Current dt:dt=""r8"">0</Current><DateUtc dt:dt=""string"">2023-04-05T08:58:03Z</DateUtc></FrequencyChange></FrequencyChanges></Clock>\n";TMS_Ibrahim-52-4;75.029;1.0.0.561;1;;1300931287;2.0.10.242;2.0.10.242;04/05/2023;05/04/2023 08:58;10:58:03;2.0.10.147;0;;-999999;20;19652;0;1;3121;22773;1;1;1;2;1;0;1;BlockProcFischi;BlockList;1;50;0;;-999999;32;26358;0;1;1569;27927;1;1;1;1;ProcFischi1;ListBlockFischi;32;0;2;1;0;5;Prmod_B;;1;op;1;2;16;1;32;1;0;TrialProc;561;1314;Prmod_B;78;1725;1647;ListFischi1;0;;2;203;261604;7;15;1756;263360;476;1;1;1;43;385;-475;1;0
TMS_Ibrahim;52;4;"<?xml version=""1.0""?>\n<Clock xmlns:dt=""urn:schemas-microsoft-com:datatypes""><Description dt:dt=""string"">E-Prime Primary Realtime Clock</Description><StartTime><Timestamp dt:dt=""int"">0</Timestamp><DateUtc dt:dt=""string"">2023-04-05T08:58:03Z</DateUtc></StartTime><FrequencyChanges><FrequencyChange><Frequency dt:dt=""r8"">3312861</Frequency><Timestamp dt:dt=""r8"">31365057457</Timestamp><Current dt:dt=""r8"">0</Current><DateUtc dt:dt=""string"">2023-04-05T08:58:03Z</DateUtc></FrequencyChange></FrequencyChanges></Clock>\n";TMS_Ibrahim-52-4;75.029;1.0.0.561;1;;1300931287;2.0.10.242;2.0.10.242;04/05/2023;05/04/2023 08:58;10:58:03;2.0.10.147;0;;-999999;20;19652;0;1;3121;22773;1;1;1;2;1;0;1;BlockProcFischi;BlockList;1;50;0;;-999999;32;26358;0;1;1569;27927;1;1;1;1;ProcFischi1;ListBlockFischi;33;1;1;0;1;3;Po5_B;75;2;op;3;2;41;1;33;2;0;TrialProc;505;989;Po5_B;29;1453;1482;ListFischi1;0;;2;201;268620;15;13;1476;270096;484;1;1476;1;131;242;992;1;1
TMS_Ibrahim;52;4;"<?xml version=""1.0""?>\n<Clock xmlns:dt=""urn:schemas-microsoft-com:datatypes""><Description dt:dt=""string"">E-Prime Primary Realtime Clock</Description><StartTime><Timestamp dt:dt=""int"">0</Timestamp><DateUtc dt:dt=""string"">2023-04-05T08:58:03Z</DateUtc></StartTime><FrequencyChanges><FrequencyChange><Frequency dt:dt=""r8"">3312861</Frequency><Timestamp dt:dt=""r8"">31365057457</Timestamp><Current dt:dt=""r8"">0</Current><DateUtc dt:dt=""string"">2023-04-05T08:58:03Z</DateUtc></FrequencyChange></FrequencyChanges></Clock>\n";TMS_Ibrahim-52-4;75.029;1.0.0.561;1;;1300931287;2.0.10.242;2.0.10.242;04/05/2023;05/04/2023 08:58;10:58:03;2.0.10.147;0;;-999999;20;19652;0;1;3121;22773;1;1;1;2;1;0;1;BlockProcFischi;BlockList;1;50;0;;-999999;32;26358;0;1;1569;27927;1;1;1;1;ProcFischi1;ListBlockFischi;34;0;1;1;0;5;Pomod_B;;4;ug;1;2;63;1;34;4;1;TrialProc;408;1319;Pomod_B;29;1453;1679;ListFischi1;0;;2;203;275766;12;15;2026;277792;378;1;1;1;95;399;-377;1;0
TMS_Ibrahim;52;4;"<?xml version=""1.0""?>\n<Clock xmlns:dt=""urn:schemas-microsoft-com:datatypes""><Description dt:dt=""string"">E-Prime Primary Realtime Clock</Description><StartTime><Timestamp dt:dt=""int"">0</Timestamp><DateUtc dt:dt=""string"">2023-04-05T08:58:03Z</DateUtc></StartTime><FrequencyChanges><FrequencyChange><Frequency dt:dt=""r8"">3312861</Frequency><Timestamp dt:dt=""r8"">31365057457</Timestamp><Current dt:dt=""r8"">0</Current><DateUtc dt:dt=""string"">2023-04-05T08:58:03Z</DateUtc></FrequencyChange></FrequencyChanges></Clock>\n";TMS_Ibrahim-52-4;75.029;1.0.0.561;1;;1300931287;2.0.10.242;2.0.10.242;04/05/2023;05/04/2023 08:58;10:58:03;2.0.10.147;0;;-999999;20;19652;0;1;3121;22773;1;1;1;2;1;0;1;BlockProcFischi;BlockList;1;50;0;;-999999;32;26358;0;1;1569;27927;1;1;1;1;ProcFischi1;ListBlockFischi;35;1;1;0;0;5;Po3_B;125;4;ug;5;2;50;1;35;4;1;TrialProc;444;1323;Po3_B;155;1435;1590;ListFischi1;0;;2;201;282758;18;155;2026;284784;410;1;1466;1;1;288;1056;1;1
TMS_Ibrahim;52;4;"<?xml version=""1.0""?>\n<Clock xmlns:dt=""urn:schemas-microsoft-com:datatypes""><Description dt:dt=""string"">E-Prime Primary Realtime Clock</Description><StartTime><Timestamp dt:dt=""int"">0</Timestamp><DateUtc dt:dt=""string"">2023-04-05T08:58:03Z</DateUtc></StartTime><FrequencyChanges><FrequencyChange><Frequency dt:dt=""r8"">3312861</Frequency><Timestamp dt:dt=""r8"">31365057457</Timestamp><Current dt:dt=""r8"">0</Current><DateUtc dt:dt=""string"">2023-04-05T08:58:03Z</DateUtc></FrequencyChange></FrequencyChanges></Clock>\n";TMS_Ibrahim-52-4;75.029;1.0.0.561;1;;1300931287;2.0.10.242;2.0.10.242;04/05/2023;05/04/2023 08:58;10:58:03;2.0.10.147;0;;-999999;20;19652;0;1;3121;22773;1;1;1;2;1;0;1;BlockProcFischi;BlockList;1;50;0;;-999999;32;26358;0;1;1569;27927;1;1;1;1;ProcFischi1;ListBlockFischi;36;1;1;0;0;3;Po4_B;50;2;op;3;2;40;1;36;2;0;TrialProc;315;1345;Po4_B;143;1575;1718;ListFischi1;0;;2;203;289628;12;13;1603;291231;579;1;1603;1;211;523;1024;1;1
