ExperimentName;Subject;Session;Clock.Information;DataFile.Basename;Display.RefreshRate;ExperimentVersion;Group;Name;RandomSeed;RuntimeVersion;RuntimeVersionExpected;SessionDate;SessionStartDateTimeUtc;SessionTime;StudioVersion;SyncEprimeKinB1.ACC;SyncEprimeKinB1.CRESP;SyncEprimeKinB1.DurationError;SyncEprimeKinB1.OnsetDelay;SyncEprimeKinB1.OnsetTime;SyncEprimeKinB1.OnsetToOnsetTime;SyncEprimeKinB1.RESP;SyncEprimeKinB1.RT;SyncEprimeKinB1.RTTime;Block;BlockINT_0Fischi_1Suoni;BlockList;BlockList.Cycle;BlockList.Sample;ContatoreSuoni;NumSuono;Procedure[Block];Running[Block];Suonilist;SuonoFinSoglia;SyncEprimeKinFischi1.ACC;SyncEprimeKinFischi1.CRESP;SyncEprimeKinFischi1.DurationError;SyncEprimeKinFischi1.OnsetDelay;SyncEprimeKinFischi1.OnsetTime;SyncEprimeKinFischi1.OnsetToOnsetTime;SyncEprimeKinFischi1.RESP;SyncEprimeKinFischi1.RT;SyncEprimeKinFischi1.RTTime;Trial;ListBlockFischi;ListBlockFischi.Cycle;ListBlockFischi.Sample;Procedure[Trial];Running[Trial];SubTrial;AccSogg1;Avatar_Giu1_Su2;CatchTrial_CORR;ContatoreFinestraSoglia;CorrectResponse;File_Name;FinestraSoglia;IdcondEEG;Istruzione;KeySoggetto1;KeySoggetto2;ListFischi1;ListFischi1.Cycle;ListFischi1.Sample;NumeroSuono;OP_UG;Procedure[SubTrial];Resoconto.RT;RTChange;RTimage;RTNetto;RTSubj;RTTouch;Running[SubTrial];StartGo.ACC;StartGo.CRESP;StartGo.DurationError;StartGo.OnsetDelay;StartGo.OnsetTime;StartGo.OnsetToOnsetTime;StartGo.RESP;StartGo.RT;StartGo.RTTime;StartSoggetto1;StartSoggetto2;StopSoggetto1;StopSoggetto2;StopTrial.RT;tempo;TMSoggetto1;ValiditaTrial;Vincitore
TMS_Ibrahim;53;2;"<?xml version=""1.0""?>\n<Clock xmlns:dt=""urn:schemas-microsoft-com:datatypes""><Description dt:dt=""string"">E-Prime Primary Realtime Clock</Description><StartTime><Timestamp dt:dt=""int"">0</Timestamp><DateUtc dt:dt=""string"">2023-04-14T07:59:38Z</DateUtc></StartTime><FrequencyChanges><FrequencyChange><Frequency dt:dt=""r8"">3312851</Frequency><Timestamp dt:dt=""r8"">24934021085</Timestamp><Current dt:dt=""r8"">0</Current><DateUtc dt:dt=""string"">2023-04-14T07:59:38Z</DateUtc></FrequencyChange></FrequencyChanges></Clock>\n";TMS_Ibrahim-53-2;75.029;1.0.0.561;1;;-835158259;2.0.10.242;2.0.10.242;04-14-2023;14/04/2023 07:59;09:59:39;2.0.10.147;0;;-999999;19;13276;0;1;846;14122;1;1;1;2;1;2;1;BlockProcFischi;BlockList;1;75;0;;-999999;13;15883;0;1;1476;17359;1;1;1;1;ProcFischi1;ListBlockFischi;1;1;2;0;0;3;Pr8_B;250;3;ug;3;2;21;1;1;3;1;TrialProc;4561;729;Pr8_B;438;2194;1755;ListFischi1;0;;3;203;19516;27;13;2221;21737;445;1;2221;1;544;596;1776;1;1
TMS_Ibrahim;53;2;"<?xml version=""1.0""?>\n<Clock xmlns:dt=""urn:schemas-microsoft-com:datatypes""><Description dt:dt=""string"">E-Prime Primary Realtime Clock</Description><StartTime><Timestamp dt:dt=""int"">0</Timestamp><DateUtc dt:dt=""string"">2023-04-14T07:59:38Z</DateUtc></StartTime><FrequencyChanges><FrequencyChange><Frequency dt:dt=""r8"">3312851</Frequency><Timestamp dt:dt=""r8"">24934021085</Timestamp><Current dt:dt=""r8"">0</Current><DateUtc dt:dt=""string"">2023-04-14T07:59:38Z</DateUtc></FrequencyChange></FrequencyChanges></Clock>\n";TMS_Ibrahim-53-2;75.029;1.0.0.561;1;;-835158259;2.0.10.242;2.0.10.242;04-14-2023;14/04/2023 07:59;09:59:39;2.0.10.147;0;;-999999;19;13276;0;1;846;14122;1;1;1;2;1;2;1;BlockProcFischi;BlockList;1;75;0;;-999999;13;15883;0;1;1476;17359;1;1;1;1;ProcFischi1;ListBlockFischi;2;1;2;0;1;3;Pr4_B;250;3;ug;3;2;29;1;2;3;1;TrialProc;3427;671;Pr4_B;101;1346;1244;ListFischi1;0;;2;207;28904;9;13;1377;30281;337;1;1377;1;426;547;1040;1;1
TMS_Ibrahim;53;2;"<?xml version=""1.0""?>\n<Clock xmlns:dt=""urn:schemas-microsoft-com:datatypes""><Description dt:dt=""string"">E-Prime Primary Realtime Clock</Description><StartTime><Timestamp dt:dt=""int"">0</Timestamp><DateUtc dt:dt=""string"">2023-04-14T07:59:38Z</DateUtc></StartTime><FrequencyChanges><FrequencyChange><Frequency dt:dt=""r8"">3312851</Frequency><Timestamp dt:dt=""r8"">24934021085</Timestamp><Current dt:dt=""r8"">0</Current><DateUtc dt:dt=""string"">2023-04-14T07:59:38Z</DateUtc></FrequencyChange></FrequencyChanges></Clock>\n";TMS_Ibrahim-53-2;75.029;1.0.0.561;1;;-835158259;2.0.10.242;2.0.10.242;04-14-2023;14/04/2023 07:59;09:59:39;2.0.10.147;0;;-999999;19;13276;0;1;846;14122;1;1;1;2;1;2;1;BlockProcFischi;BlockList;1;75;0;;-999999;13;15883;0;1;1476;17359;1;1;1;1;ProcFischi1;ListBlockFischi;3;1;1;0;0;3;Po4_B;250;2;op;3;2;40;1;3;2;0;TrialProc;3831;1347;Po4_B;300;1421;1721;ListFischi1;0;;2;201;36852;18;13;1445;38297;325;1;1445;1;354;580;1120;1;1
TMS_Ibrahim;53;2;"<?xml version=""1.0""?>\n<Clock xmlns:dt=""urn:schemas-microsoft-com:datatypes""><Description dt:dt=""string"">E-Prime Primary Realtime Clock</Description><StartTime><Timestamp dt:dt=""int"">0</Timestamp><DateUtc dt:dt=""string"">2023-04-14T07:59:38Z</DateUtc></StartTime><FrequencyChanges><FrequencyChange><Frequency dt:dt=""r8"">3312851</Frequency><Timestamp dt:dt=""r8"">24934021085</Timestamp><Current dt:dt=""r8"">0</Current><DateUtc dt:dt=""string"">2023-04-14T07:59:38Z</DateUtc></FrequencyChange></FrequencyChanges></Clock>\n";TMS_Ibrahim-53-2;75.029;1.0.0.561;1;;-835158259;2.0.10.242;2.0.10.242;04-14-2023;14/04/2023 07:59;09:59:39;2.0.10.147;0;;-999999;19;13276;0;1;846;14122;1;1;1;2;1;2;1;BlockProcFischi;BlockList;1;75;0;;-999999;13;15883;0;1;1476;17359;1;1;1;1;ProcFischi1;ListBlockFischi;4;0;1;0;0;5;Po4_B;;4;ug;1;2;51;1;4;4;1;TrialProc;1874;1343;Po4_B;300;1421;1716;ListFischi1;0;;2;203;45359;14;15;2297;47656;505;1;1;1;442;420;-504;1;0
TMS_Ibrahim;53;2;"<?xml version=""1.0""?>\n<Clock xmlns:dt=""urn:schemas-microsoft-com:datatypes""><Description dt:dt=""string"">E-Prime Primary Realtime Clock</Description><StartTime><Timestamp dt:dt=""int"">0</Timestamp><DateUtc dt:dt=""string"">2023-04-14T07:59:38Z</DateUtc></StartTime><FrequencyChanges><FrequencyChange><Frequency dt:dt=""r8"">3312851</Frequency><Timestamp dt:dt=""r8"">24934021085</Timestamp><Current dt:dt=""r8"">0</Current><DateUtc dt:dt=""string"">2023-04-14T07:59:38Z</DateUtc></FrequencyChange></FrequencyChanges></Clock>\n";TMS_Ibrahim-53-2;75.029;1.0.0.561;1;;-835158259;2.0.10.242;2.0.10.242;04-14-2023;14/04/2023 07:59;09:59:39;2.0.10.147;0;;-999999;19;13276;0;1;846;14122;1;1;1;2;1;2;1;BlockProcFischi;BlockList;1;75;0;;-999999;13;15883;0;1;1476;17359;1;1;1;1;ProcFischi1;ListBlockFischi;5;1;2;0;0;3;Pr3_B;225;3;ug;3;2;18;1;5;3;1;TrialProc;3355;710;Pr3_B;99;1609;1709;ListFischi1;0;;2;203;53444;6;133;1812;55256;276;1;1636;1;433;394;1360;1;1
TMS_Ibrahim;53;2;"<?xml version=""1.0""?>\n<Clock xmlns:dt=""urn:schemas-microsoft-com:datatypes""><Description dt:dt=""string"">E-Prime Primary Realtime Clock</Description><StartTime><Timestamp dt:dt=""int"">0</Timestamp><DateUtc dt:dt=""string"">2023-04-14T07:59:38Z</DateUtc></StartTime><FrequencyChanges><FrequencyChange><Frequency dt:dt=""r8"">3312851</Frequency><Timestamp dt:dt=""r8"">24934021085</Timestamp><Current dt:dt=""r8"">0</Current><DateUtc dt:dt=""string"">2023-04-14T07:59:38Z</DateUtc></FrequencyChange></FrequencyChanges></Clock>\n";TMS_Ibrahim-53-2;75.029;1.0.0.561;1;;-835158259;2.0.10.242;2.0.10.242;04-14-2023;14/04/2023 07:59;09:59:39;2.0.10.147;0;;-999999;19;13276;0;1;846;14122;1;1;1;2;1;2;1;BlockProcFischi;BlockList;1;75;0;;-999999;13;15883;0;1;1476;17359;1;1;1;1;ProcFischi1;ListBlockFischi;6;1;2;0;0;5;Pr4_B;250;1;op;5;2;3;1;6;1;0;TrialProc;2558;709;Pr4_B;156;1398;1241;ListFischi1;0;;2;203;62054;6;15;1426;63480;242;1;1426;1;828;428;1184;1;1
TMS_Ibrahim;53;2;"<?xml version=""1.0""?>\n<Clock xmlns:dt=""urn:schemas-microsoft-com:datatypes""><Description dt:dt=""string"">E-Prime Primary Realtime Clock</Description><StartTime><Timestamp dt:dt=""int"">0</Timestamp><DateUtc dt:dt=""string"">2023-04-14T07:59:38Z</DateUtc></StartTime><FrequencyChanges><FrequencyChange><Frequency dt:dt=""r8"">3312851</Frequency><Timestamp dt:dt=""r8"">24934021085</Timestamp><Current dt:dt=""r8"">0</Current><DateUtc dt:dt=""string"">2023-04-14T07:59:38Z</DateUtc></FrequencyChange></FrequencyChanges></Clock>\n";TMS_Ibrahim-53-2;75.029;1.0.0.561;1;;-835158259;2.0.10.242;2.0.10.242;04-14-2023;14/04/2023 07:59;09:59:39;2.0.10.147;0;;-999999;19;13276;0;1;846;14122;1;1;1;2;1;2;1;BlockProcFischi;BlockList;1;75;0;;-999999;13;15883;0;1;1476;17359;1;1;1;1;ProcFischi1;ListBlockFischi;7;1;1;0;0;5;Po8_B;250;4;ug;5;2;58;1;7;4;1;TrialProc;2914;1249;Po8_B;83;1500;1583;ListFischi1;0;;2;201;69872;12;155;2840;72712;314;1;1528;1;649;483;1214;1;1
TMS_Ibrahim;53;2;"<?xml version=""1.0""?>\n<Clock xmlns:dt=""urn:schemas-microsoft-com:datatypes""><Description dt:dt=""string"">E-Prime Primary Realtime Clock</Description><StartTime><Timestamp dt:dt=""int"">0</Timestamp><DateUtc dt:dt=""string"">2023-04-14T07:59:38Z</DateUtc></StartTime><FrequencyChanges><FrequencyChange><Frequency dt:dt=""r8"">3312851</Frequency><Timestamp dt:dt=""r8"">24934021085</Timestamp><Current dt:dt=""r8"">0</Current><DateUtc dt:dt=""string"">2023-04-14T07:59:38Z</DateUtc></FrequencyChange></FrequencyChanges></Clock>\n";TMS_Ibrahim-53-2;75.029;1.0.0.561;1;;-835158259;2.0.10.242;2.0.10.242;04-14-2023;14/04/2023 07:59;09:59:39;2.0.10.147;0;;-999999;19;13276;0;1;846;14122;1;1;1;2;1;2;1;BlockProcFischi;BlockList;1;75;0;;-999999;13;15883;0;1;1476;17359;1;1;1;1;ProcFischi1;ListBlockFischi;8;1;2;0;0;5;Pr3_B;225;1;op;5;2;7;1;8;1;0;TrialProc;2741;714;Pr3_B;135;1579;1714;ListFischi1;0;;2;203;77416;12;15;1616;79032;192;1;1616;1;503;289;1424;1;1
TMS_Ibrahim;53;2;"<?xml version=""1.0""?>\n<Clock xmlns:dt=""urn:schemas-microsoft-com:datatypes""><Description dt:dt=""string"">E-Prime Primary Realtime Clock</Description><StartTime><Timestamp dt:dt=""int"">0</Timestamp><DateUtc dt:dt=""string"">2023-04-14T07:59:38Z</DateUtc></StartTime><FrequencyChanges><FrequencyChange><Frequency dt:dt=""r8"">3312851</Frequency><Timestamp dt:dt=""r8"">24934021085</Timestamp><Current dt:dt=""r8"">0</Current><DateUtc dt:dt=""string"">2023-04-14T07:59:38Z</DateUtc></FrequencyChange></FrequencyChanges></Clock>\n";TMS_Ibrahim-53-2;75.029;1.0.0.561;1;;-835158259;2.0.10.242;2.0.10.242;04-14-2023;14/04/2023 07:59;09:59:39;2.0.10.147;0;;-999999;19;13276;0;1;846;14122;1;1;1;2;1;2;1;BlockProcFischi;BlockList;1;75;0;;-999999;13;15883;0;1;1476;17359;1;1;1;1;ProcFischi1;ListBlockFischi;9;1;2;1;0;3;Prmod_B;200;3;ug;3;2;31;1;9;3;1;TrialProc;2198;1315;Prmod_B;110;1759;1648;ListFischi1;0;;2;203;85666;12;13;1781;87447;277;1;1781;1;635;403;1504;1;1
TMS_Ibrahim;53;2;"<?xml version=""1.0""?>\n<Clock xmlns:dt=""urn:schemas-microsoft-com:datatypes""><Description dt:dt=""string"">E-Prime Primary Realtime Clock</Description><StartTime><Timestamp dt:dt=""int"">0</Timestamp><DateUtc dt:dt=""string"">2023-04-14T07:59:38Z</DateUtc></StartTime><FrequencyChanges><FrequencyChange><Frequency dt:dt=""r8"">3312851</Frequency><Timestamp dt:dt=""r8"">24934021085</Timestamp><Current dt:dt=""r8"">0</Current><DateUtc dt:dt=""string"">2023-04-14T07:59:38Z</DateUtc></FrequencyChange></FrequencyChanges></Clock>\n";TMS_Ibrahim-53-2;75.029;1.0.0.561;1;;-835158259;2.0.10.242;2.0.10.242;04-14-2023;14/04/2023 07:59;09:59:39;2.0.10.147;0;;-999999;19;13276;0;1;846;14122;1;1;1;2;1;2;1;BlockProcFischi;BlockList;1;75;0;;-999999;13;15883;0;1;1476;17359;1;1;1;1;ProcFischi1;ListBlockFischi;10;1;2;1;0;5;Prmod_B;200;1;op;5;2;16;1;10;1;0;TrialProc;1323;1312;Prmod_B;577;2222;1645;ListFischi1;0;;2;203;94639;9;15;2248;96887;392;1;2248;1;1379;253;1856;1;1
TMS_Ibrahim;53;2;"<?xml version=""1.0""?>\n<Clock xmlns:dt=""urn:schemas-microsoft-com:datatypes""><Description dt:dt=""string"">E-Prime Primary Realtime Clock</Description><StartTime><Timestamp dt:dt=""int"">0</Timestamp><DateUtc dt:dt=""string"">2023-04-14T07:59:38Z</DateUtc></StartTime><FrequencyChanges><FrequencyChange><Frequency dt:dt=""r8"">3312851</Frequency><Timestamp dt:dt=""r8"">24934021085</Timestamp><Current dt:dt=""r8"">0</Current><DateUtc dt:dt=""string"">2023-04-14T07:59:38Z</DateUtc></FrequencyChange></FrequencyChanges></Clock>\n";TMS_Ibrahim-53-2;75.029;1.0.0.561;1;;-835158259;2.0.10.242;2.0.10.242;04-14-2023;14/04/2023 07:59;09:59:39;2.0.10.147;0;;-999999;19;13276;0;1;846;14122;1;1;1;2;1;2;1;BlockProcFischi;BlockList;1;75;0;;-999999;13;15883;0;1;1476;17359;1;1;1;1;ProcFischi1;ListBlockFischi;11;1;2;0;1;5;Pr4_B;200;1;op;5;2;13;1;11;1;0;TrialProc;1604;673;Pr4_B;12;1259;1247;ListFischi1;0;;2;203;102648;10;15;1279;103927;335;1;1279;1;927;200;944;1;1
TMS_Ibrahim;53;2;"<?xml version=""1.0""?>\n<Clock xmlns:dt=""urn:schemas-microsoft-com:datatypes""><Description dt:dt=""string"">E-Prime Primary Realtime Clock</Description><StartTime><Timestamp dt:dt=""int"">0</Timestamp><DateUtc dt:dt=""string"">2023-04-14T07:59:38Z</DateUtc></StartTime><FrequencyChanges><FrequencyChange><Frequency dt:dt=""r8"">3312851</Frequency><Timestamp dt:dt=""r8"">24934021085</Timestamp><Current dt:dt=""r8"">0</Current><DateUtc dt:dt=""string"">2023-04-14T07:59:38Z</DateUtc></FrequencyChange></FrequencyChanges></Clock>\n";TMS_Ibrahim-53-2;75.029;1.0.0.561;1;;-835158259;2.0.10.242;2.0.10.242;04-14-2023;14/04/2023 07:59;09:59:39;2.0.10.147;0;;-999999;19;13276;0;1;846;14122;1;1;1;2;1;2;1;BlockProcFischi;BlockList;1;75;0;;-999999;13;15883;0;1;1476;17359;1;1;1;1;ProcFischi1;ListBlockFischi;12;1;1;0;1;3;Po8_B;250;2;op;3;2;37;1;12;2;0;TrialProc;2346;1246;Po8_B;10;1590;1579;ListFischi1;0;;2;203;110992;10;133;2327;113319;343;1;1623;1;727;433;1280;1;1
TMS_Ibrahim;53;2;"<?xml version=""1.0""?>\n<Clock xmlns:dt=""urn:schemas-microsoft-com:datatypes""><Description dt:dt=""string"">E-Prime Primary Realtime Clock</Description><StartTime><Timestamp dt:dt=""int"">0</Timestamp><DateUtc dt:dt=""string"">2023-04-14T07:59:38Z</DateUtc></StartTime><FrequencyChanges><FrequencyChange><Frequency dt:dt=""r8"">3312851</Frequency><Timestamp dt:dt=""r8"">24934021085</Timestamp><Current dt:dt=""r8"">0</Current><DateUtc dt:dt=""string"">2023-04-14T07:59:38Z</DateUtc></FrequencyChange></FrequencyChanges></Clock>\n";TMS_Ibrahim-53-2;75.029;1.0.0.561;1;;-835158259;2.0.10.242;2.0.10.242;04-14-2023;14/04/2023 07:59;09:59:39;2.0.10.147;0;;-999999;19;13276;0;1;846;14122;1;1;1;2;1;2;1;BlockProcFischi;BlockList;1;75;0;;-999999;13;15883;0;1;1476;17359;1;1;1;1;ProcFischi1;ListBlockFischi;13;1;2;0;0;5;Pr8_B;175;1;op;5;2;10;1;13;1;0;TrialProc;2329;715;Pr8_B;23;1763;1740;ListFischi1;0;;3;201;118240;12;15;1798;120038;390;1;1798;1;648;540;1408;1;1
TMS_Ibrahim;53;2;"<?xml version=""1.0""?>\n<Clock xmlns:dt=""urn:schemas-microsoft-com:datatypes""><Description dt:dt=""string"">E-Prime Primary Realtime Clock</Description><StartTime><Timestamp dt:dt=""int"">0</Timestamp><DateUtc dt:dt=""string"">2023-04-14T07:59:38Z</DateUtc></StartTime><FrequencyChanges><FrequencyChange><Frequency dt:dt=""r8"">3312851</Frequency><Timestamp dt:dt=""r8"">24934021085</Timestamp><Current dt:dt=""r8"">0</Current><DateUtc dt:dt=""string"">2023-04-14T07:59:38Z</DateUtc></FrequencyChange></FrequencyChanges></Clock>\n";TMS_Ibrahim-53-2;75.029;1.0.0.561;1;;-835158259;2.0.10.242;2.0.10.242;04-14-2023;14/04/2023 07:59;09:59:39;2.0.10.147;0;;-999999;19;13276;0;1;846;14122;1;1;1;2;1;2;1;BlockProcFischi;BlockList;1;75;0;;-999999;13;15883;0;1;1476;17359;1;1;1;1;ProcFischi1;ListBlockFischi;14;1;2;0;0;5;Pr4_B;150;1;op;5;2;8;1;14;1;0;TrialProc;2442;672;Pr4_B;349;1594;1246;ListFischi1;0;;2;203;126973;9;15;1625;128598;409;1;1625;1;1080;581;1216;1;1
TMS_Ibrahim;53;2;"<?xml version=""1.0""?>\n<Clock xmlns:dt=""urn:schemas-microsoft-com:datatypes""><Description dt:dt=""string"">E-Prime Primary Realtime Clock</Description><StartTime><Timestamp dt:dt=""int"">0</Timestamp><DateUtc dt:dt=""string"">2023-04-14T07:59:38Z</DateUtc></StartTime><FrequencyChanges><FrequencyChange><Frequency dt:dt=""r8"">3312851</Frequency><Timestamp dt:dt=""r8"">24934021085</Timestamp><Current dt:dt=""r8"">0</Current><DateUtc dt:dt=""string"">2023-04-14T07:59:38Z</DateUtc></FrequencyChange></FrequencyChanges></Clock>\n";TMS_Ibrahim-53-2;75.029;1.0.0.561;1;;-835158259;2.0.10.242;2.0.10.242;04-14-2023;14/04/2023 07:59;09:59:39;2.0.10.147;0;;-999999;19;13276;0;1;846;14122;1;1;1;2;1;2;1;BlockProcFischi;BlockList;1;75;0;;-999999;13;15883;0;1;1476;17359;1;1;1;1;ProcFischi1;ListBlockFischi;15;1;1;0;0;5;Po5_B;225;4;ug;5;2;62;1;15;4;1;TrialProc;2048;987;Po5_B;28;1452;1479;ListFischi1;0;;2;203;135495;17;15;1487;136982;287;1;1487;1;1328;398;1200;1;1
TMS_Ibrahim;53;2;"<?xml version=""1.0""?>\n<Clock xmlns:dt=""urn:schemas-microsoft-com:datatypes""><Description dt:dt=""string"">E-Prime Primary Realtime Clock</Description><StartTime><Timestamp dt:dt=""int"">0</Timestamp><DateUtc dt:dt=""string"">2023-04-14T07:59:38Z</DateUtc></StartTime><FrequencyChanges><FrequencyChange><Frequency dt:dt=""r8"">3312851</Frequency><Timestamp dt:dt=""r8"">24934021085</Timestamp><Current dt:dt=""r8"">0</Current><DateUtc dt:dt=""string"">2023-04-14T07:59:38Z</DateUtc></FrequencyChange></FrequencyChanges></Clock>\n";TMS_Ibrahim-53-2;75.029;1.0.0.561;1;;-835158259;2.0.10.242;2.0.10.242;04-14-2023;14/04/2023 07:59;09:59:39;2.0.10.147;0;;-999999;19;13276;0;1;846;14122;1;1;1;2;1;2;1;BlockProcFischi;BlockList;1;75;0;;-999999;13;15883;0;1;1476;17359;1;1;1;1;ProcFischi1;ListBlockFischi;16;0;1;1;0;3;Pomod_B;;2;op;5;2;48;1;16;2;0;TrialProc;3158;1311;Pomod_B;46;1719;1672;ListFischi1;0;;2;203;144019;10;15;1747;145766;323;1;1747;1;1094;237;1424;1;0
TMS_Ibrahim;53;2;"<?xml version=""1.0""?>\n<Clock xmlns:dt=""urn:schemas-microsoft-com:datatypes""><Description dt:dt=""string"">E-Prime Primary Realtime Clock</Description><StartTime><Timestamp dt:dt=""int"">0</Timestamp><DateUtc dt:dt=""string"">2023-04-14T07:59:38Z</DateUtc></StartTime><FrequencyChanges><FrequencyChange><Frequency dt:dt=""r8"">3312851</Frequency><Timestamp dt:dt=""r8"">24934021085</Timestamp><Current dt:dt=""r8"">0</Current><DateUtc dt:dt=""string"">2023-04-14T07:59:38Z</DateUtc></FrequencyChange></FrequencyChanges></Clock>\n";TMS_Ibrahim-53-2;75.029;1.0.0.561;1;;-835158259;2.0.10.242;2.0.10.242;04-14-2023;14/04/2023 07:59;09:59:39;2.0.10.147;0;;-999999;19;13276;0;1;846;14122;1;1;1;2;1;2;1;BlockProcFischi;BlockList;1;75;0;;-999999;13;15883;0;1;1476;17359;1;1;1;1;ProcFischi1;ListBlockFischi;17;1;2;0;0;3;Pr2_B;175;3;ug;3;2;17;1;17;3;1;TrialProc;4312;714;Pr2_B;83;1330;1247;ListFischi1;0;;2;203;152507;12;13;1355;153862;411;1;1355;1;795;269;944;1;1
TMS_Ibrahim;53;2;"<?xml version=""1.0""?>\n<Clock xmlns:dt=""urn:schemas-microsoft-com:datatypes""><Description dt:dt=""string"">E-Prime Primary Realtime Clock</Description><StartTime><Timestamp dt:dt=""int"">0</Timestamp><DateUtc dt:dt=""string"">2023-04-14T07:59:38Z</DateUtc></StartTime><FrequencyChanges><FrequencyChange><Frequency dt:dt=""r8"">3312851</Frequency><Timestamp dt:dt=""r8"">24934021085</Timestamp><Current dt:dt=""r8"">0</Current><DateUtc dt:dt=""string"">2023-04-14T07:59:38Z</DateUtc></FrequencyChange></FrequencyChanges></Clock>\n";TMS_Ibrahim-53-2;75.029;1.0.0.561;1;;-835158259;2.0.10.242;2.0.10.242;04-14-2023;14/04/2023 07:59;09:59:39;2.0.10.147;0;;-999999;19;13276;0;1;846;14122;1;1;1;2;1;2;1;BlockProcFischi;BlockList;1;75;0;;-999999;13;15883;0;1;1476;17359;1;1;1;1;ProcFischi1;ListBlockFischi;18;1;2;0;0;3;Pr2_B;150;3;ug;3;2;22;1;18;3;1;TrialProc;1613;720;Pr2_B;29;1282;1253;ListFischi1;0;;2;203;160953;16;133;2220;163173;300;1;1308;1;651;262;1008;1;1
TMS_Ibrahim;53;2;"<?xml version=""1.0""?>\n<Clock xmlns:dt=""urn:schemas-microsoft-com:datatypes""><Description dt:dt=""string"">E-Prime Primary Realtime Clock</Description><StartTime><Timestamp dt:dt=""int"">0</Timestamp><DateUtc dt:dt=""string"">2023-04-14T07:59:38Z</DateUtc></StartTime><FrequencyChanges><FrequencyChange><Frequency dt:dt=""r8"">3312851</Frequency><Timestamp dt:dt=""r8"">24934021085</Timestamp><Current dt:dt=""r8"">0</Current><DateUtc dt:dt=""string"">2023-04-14T07:59:38Z</DateUtc></FrequencyChange></FrequencyChanges></Clock>\n";TMS_Ibrahim-53-2;75.029;1.0.0.561;1;;-835158259;2.0.10.242;2.0.10.242;04-14-2023;14/04/2023 07:59;09:59:39;2.0.10.147;0;;-999999;19;13276;0;1;846;14122;1;1;1;2;1;2;1;BlockProcFischi;BlockList;1;75;0;;-999999;13;15883;0;1;1476;17359;1;1;1;1;ProcFischi1;ListBlockFischi;19;1;2;0;1;5;Pr3_B;150;1;op;5;2;12;1;19;1;0;TrialProc;2715;721;Pr3_B;115;1836;1721;ListFischi1;0;;1;201;167789;17;155;3256;171045;520;1;1864;1;1126;394;1344;1;1
TMS_Ibrahim;53;2;"<?xml version=""1.0""?>\n<Clock xmlns:dt=""urn:schemas-microsoft-com:datatypes""><Description dt:dt=""string"">E-Prime Primary Realtime Clock</Description><StartTime><Timestamp dt:dt=""int"">0</Timestamp><DateUtc dt:dt=""string"">2023-04-14T07:59:38Z</DateUtc></StartTime><FrequencyChanges><FrequencyChange><Frequency dt:dt=""r8"">3312851</Frequency><Timestamp dt:dt=""r8"">24934021085</Timestamp><Current dt:dt=""r8"">0</Current><DateUtc dt:dt=""string"">2023-04-14T07:59:38Z</DateUtc></FrequencyChange></FrequencyChanges></Clock>\n";TMS_Ibrahim-53-2;75.029;1.0.0.561;1;;-835158259;2.0.10.242;2.0.10.242;04-14-2023;14/04/2023 07:59;09:59:39;2.0.10.147;0;;-999999;19;13276;0;1;846;14122;1;1;1;2;1;2;1;BlockProcFischi;BlockList;1;75;0;;-999999;13;15883;0;1;1476;17359;1;1;1;1;ProcFischi1;ListBlockFischi;20;1;1;0;0;3;Po2_B;225;2;op;3;2;33;1;20;2;0;TrialProc;3691;1582;Po2_B;253;1554;1808;ListFischi1;0;;1;203;177123;13;13;1586;178709;402;1;1586;1;832;446;1184;1;1
TMS_Ibrahim;53;2;"<?xml version=""1.0""?>\n<Clock xmlns:dt=""urn:schemas-microsoft-com:datatypes""><Description dt:dt=""string"">E-Prime Primary Realtime Clock</Description><StartTime><Timestamp dt:dt=""int"">0</Timestamp><DateUtc dt:dt=""string"">2023-04-14T07:59:38Z</DateUtc></StartTime><FrequencyChanges><FrequencyChange><Frequency dt:dt=""r8"">3312851</Frequency><Timestamp dt:dt=""r8"">24934021085</Timestamp><Current dt:dt=""r8"">0</Current><DateUtc dt:dt=""string"">2023-04-14T07:59:38Z</DateUtc></FrequencyChange></FrequencyChanges></Clock>\n";TMS_Ibrahim-53-2;75.029;1.0.0.561;1;;-835158259;2.0.10.242;2.0.10.242;04-14-2023;14/04/2023 07:59;09:59:39;2.0.10.147;0;;-999999;19;13276;0;1;846;14122;1;1;1;2;1;2;1;BlockProcFischi;BlockList;1;75;0;;-999999;13;15883;0;1;1476;17359;1;1;1;1;ProcFischi1;ListBlockFischi;21;1;1;1;1;3;Pomod_B;225;2;op;3;2;47;1;21;2;0;TrialProc;1994;1312;Pomod_B;99;1769;1671;ListFischi1;0;;2;203;186443;10;13;1802;188245;442;1;1802;1;908;422;1360;1;1
TMS_Ibrahim;53;2;"<?xml version=""1.0""?>\n<Clock xmlns:dt=""urn:schemas-microsoft-com:datatypes""><Description dt:dt=""string"">E-Prime Primary Realtime Clock</Description><StartTime><Timestamp dt:dt=""int"">0</Timestamp><DateUtc dt:dt=""string"">2023-04-14T07:59:38Z</DateUtc></StartTime><FrequencyChanges><FrequencyChange><Frequency dt:dt=""r8"">3312851</Frequency><Timestamp dt:dt=""r8"">24934021085</Timestamp><Current dt:dt=""r8"">0</Current><DateUtc dt:dt=""string"">2023-04-14T07:59:38Z</DateUtc></FrequencyChange></FrequencyChanges></Clock>\n";TMS_Ibrahim-53-2;75.029;1.0.0.561;1;;-835158259;2.0.10.242;2.0.10.242;04-14-2023;14/04/2023 07:59;09:59:39;2.0.10.147;0;;-999999;19;13276;0;1;846;14122;1;1;1;2;1;2;1;BlockProcFischi;BlockList;1;75;0;;-999999;13;15883;0;1;1476;17359;1;1;1;1;ProcFischi1;ListBlockFischi;22;1;1;0;0;3;Po5_B;200;2;op;3;2;46;1;22;2;0;TrialProc;2916;981;Po5_B;69;1405;1474;ListFischi1;0;;2;203;195612;10;133;1624;197236;584;1;1432;1;653;318;848;1;1
TMS_Ibrahim;53;2;"<?xml version=""1.0""?>\n<Clock xmlns:dt=""urn:schemas-microsoft-com:datatypes""><Description dt:dt=""string"">E-Prime Primary Realtime Clock</Description><StartTime><Timestamp dt:dt=""int"">0</Timestamp><DateUtc dt:dt=""string"">2023-04-14T07:59:38Z</DateUtc></StartTime><FrequencyChanges><FrequencyChange><Frequency dt:dt=""r8"">3312851</Frequency><Timestamp dt:dt=""r8"">24934021085</Timestamp><Current dt:dt=""r8"">0</Current><DateUtc dt:dt=""string"">2023-04-14T07:59:38Z</DateUtc></FrequencyChange></FrequencyChanges></Clock>\n";TMS_Ibrahim-53-2;75.029;1.0.0.561;1;;-835158259;2.0.10.242;2.0.10.242;04-14-2023;14/04/2023 07:59;09:59:39;2.0.10.147;0;;-999999;19;13276;0;1;846;14122;1;1;1;2;1;2;1;BlockProcFischi;BlockList;1;75;0;;-999999;13;15883;0;1;1476;17359;1;1;1;1;ProcFischi1;ListBlockFischi;23;1;2;0;0;3;Pr5_B;125;3;ug;3;2;30;1;23;3;1;TrialProc;2302;677;Pr5_B;50;1327;1278;ListFischi1;0;;2;203;203685;14;13;1359;205044;175;1;1359;1;669;468;1184;1;1
TMS_Ibrahim;53;2;"<?xml version=""1.0""?>\n<Clock xmlns:dt=""urn:schemas-microsoft-com:datatypes""><Description dt:dt=""string"">E-Prime Primary Realtime Clock</Description><StartTime><Timestamp dt:dt=""int"">0</Timestamp><DateUtc dt:dt=""string"">2023-04-14T07:59:38Z</DateUtc></StartTime><FrequencyChanges><FrequencyChange><Frequency dt:dt=""r8"">3312851</Frequency><Timestamp dt:dt=""r8"">24934021085</Timestamp><Current dt:dt=""r8"">0</Current><DateUtc dt:dt=""string"">2023-04-14T07:59:38Z</DateUtc></FrequencyChange></FrequencyChanges></Clock>\n";TMS_Ibrahim-53-2;75.029;1.0.0.561;1;;-835158259;2.0.10.242;2.0.10.242;04-14-2023;14/04/2023 07:59;09:59:39;2.0.10.147;0;;-999999;19;13276;0;1;846;14122;1;1;1;2;1;2;1;BlockProcFischi;BlockList;1;75;0;;-999999;13;15883;0;1;1476;17359;1;1;1;1;ProcFischi1;ListBlockFischi;24;1;1;0;0;3;Po3_B;175;2;op;3;2;34;1;24;2;0;TrialProc;2165;1310;Po3_B;191;1766;1576;ListFischi1;0;;2;201;211397;6;13;1791;213188;415;1;1791;1;754;230;1376;1;1
TMS_Ibrahim;53;2;"<?xml version=""1.0""?>\n<Clock xmlns:dt=""urn:schemas-microsoft-com:datatypes""><Description dt:dt=""string"">E-Prime Primary Realtime Clock</Description><StartTime><Timestamp dt:dt=""int"">0</Timestamp><DateUtc dt:dt=""string"">2023-04-14T07:59:38Z</DateUtc></StartTime><FrequencyChanges><FrequencyChange><Frequency dt:dt=""r8"">3312851</Frequency><Timestamp dt:dt=""r8"">24934021085</Timestamp><Current dt:dt=""r8"">0</Current><DateUtc dt:dt=""string"">2023-04-14T07:59:38Z</DateUtc></FrequencyChange></FrequencyChanges></Clock>\n";TMS_Ibrahim-53-2;75.029;1.0.0.561;1;;-835158259;2.0.10.242;2.0.10.242;04-14-2023;14/04/2023 07:59;09:59:39;2.0.10.147;0;;-999999;19;13276;0;1;846;14122;1;1;1;2;1;2;1;BlockProcFischi;BlockList;1;75;0;;-999999;13;15883;0;1;1476;17359;1;1;1;1;ProcFischi1;ListBlockFischi;25;1;1;0;0;5;Po3_B;200;4;ug;5;2;50;1;25;4;1;TrialProc;1736;1317;Po3_B;219;1801;1583;ListFischi1;0;;2;203;219334;13;15;1822;221156;206;1;1822;1;898;448;1616;1;1
TMS_Ibrahim;53;2;"<?xml version=""1.0""?>\n<Clock xmlns:dt=""urn:schemas-microsoft-com:datatypes""><Description dt:dt=""string"">E-Prime Primary Realtime Clock</Description><StartTime><Timestamp dt:dt=""int"">0</Timestamp><DateUtc dt:dt=""string"">2023-04-14T07:59:38Z</DateUtc></StartTime><FrequencyChanges><FrequencyChange><Frequency dt:dt=""r8"">3312851</Frequency><Timestamp dt:dt=""r8"">24934021085</Timestamp><Current dt:dt=""r8"">0</Current><DateUtc dt:dt=""string"">2023-04-14T07:59:38Z</DateUtc></FrequencyChange></FrequencyChanges></Clock>\n";TMS_Ibrahim-53-2;75.029;1.0.0.561;1;;-835158259;2.0.10.242;2.0.10.242;04-14-2023;14/04/2023 07:59;09:59:39;2.0.10.147;0;;-999999;19;13276;0;1;846;14122;1;1;1;2;1;2;1;BlockProcFischi;BlockList;1;75;0;;-999999;13;15883;0;1;1476;17359;1;1;1;1;ProcFischi1;ListBlockFischi;26;1;2;0;0;5;Pr2_B;125;1;op;5;2;11;1;26;1;0;TrialProc;2393;722;Pr2_B;263;1517;1254;ListFischi1;0;;2;203;227192;18;155;1932;229124;380;1;1548;1;1159;230;1168;1;1
TMS_Ibrahim;53;2;"<?xml version=""1.0""?>\n<Clock xmlns:dt=""urn:schemas-microsoft-com:datatypes""><Description dt:dt=""string"">E-Prime Primary Realtime Clock</Description><StartTime><Timestamp dt:dt=""int"">0</Timestamp><DateUtc dt:dt=""string"">2023-04-14T07:59:38Z</DateUtc></StartTime><FrequencyChanges><FrequencyChange><Frequency dt:dt=""r8"">3312851</Frequency><Timestamp dt:dt=""r8"">24934021085</Timestamp><Current dt:dt=""r8"">0</Current><DateUtc dt:dt=""string"">2023-04-14T07:59:38Z</DateUtc></FrequencyChange></FrequencyChanges></Clock>\n";TMS_Ibrahim-53-2;75.029;1.0.0.561;1;;-835158259;2.0.10.242;2.0.10.242;04-14-2023;14/04/2023 07:59;09:59:39;2.0.10.147;0;;-999999;19;13276;0;1;846;14122;1;1;1;2;1;2;1;BlockProcFischi;BlockList;1;75;0;;-999999;13;15883;0;1;1476;17359;1;1;1;1;ProcFischi1;ListBlockFischi;27;0;2;1;1;5;Prmod_B;;1;op;3;2;15;1;27;1;0;TrialProc;3519;1311;Prmod_B;335;1309;1644;ListFischi1;0;;2;203;235600;7;133;1571;237171;275;1;1331;1;668;549;1056;1;0
TMS_Ibrahim;53;2;"<?xml version=""1.0""?>\n<Clock xmlns:dt=""urn:schemas-microsoft-com:datatypes""><Description dt:dt=""string"">E-Prime Primary Realtime Clock</Description><StartTime><Timestamp dt:dt=""int"">0</Timestamp><DateUtc dt:dt=""string"">2023-04-14T07:59:38Z</DateUtc></StartTime><FrequencyChanges><FrequencyChange><Frequency dt:dt=""r8"">3312851</Frequency><Timestamp dt:dt=""r8"">24934021085</Timestamp><Current dt:dt=""r8"">0</Current><DateUtc dt:dt=""string"">2023-04-14T07:59:38Z</DateUtc></FrequencyChange></FrequencyChanges></Clock>\n";TMS_Ibrahim-53-2;75.029;1.0.0.561;1;;-835158259;2.0.10.242;2.0.10.242;04-14-2023;14/04/2023 07:59;09:59:39;2.0.10.147;0;;-999999;19;13276;0;1;846;14122;1;1;1;2;1;2;1;BlockProcFischi;BlockList;1;75;0;;-999999;13;15883;0;1;1476;17359;1;1;1;1;ProcFischi1;ListBlockFischi;28;1;1;0;0;3;Po8_B;175;2;op;3;2;42;1;28;2;0;TrialProc;2268;1242;Po8_B;14;1591;1577;ListFischi1;0;;2;203;244463;7;13;1620;246083;228;1;1620;1;1239;382;1392;1;1
TMS_Ibrahim;53;2;"<?xml version=""1.0""?>\n<Clock xmlns:dt=""urn:schemas-microsoft-com:datatypes""><Description dt:dt=""string"">E-Prime Primary Realtime Clock</Description><StartTime><Timestamp dt:dt=""int"">0</Timestamp><DateUtc dt:dt=""string"">2023-04-14T07:59:38Z</DateUtc></StartTime><FrequencyChanges><FrequencyChange><Frequency dt:dt=""r8"">3312851</Frequency><Timestamp dt:dt=""r8"">24934021085</Timestamp><Current dt:dt=""r8"">0</Current><DateUtc dt:dt=""string"">2023-04-14T07:59:38Z</DateUtc></FrequencyChange></FrequencyChanges></Clock>\n";TMS_Ibrahim-53-2;75.029;1.0.0.561;1;;-835158259;2.0.10.242;2.0.10.242;04-14-2023;14/04/2023 07:59;09:59:39;2.0.10.147;0;;-999999;19;13276;0;1;846;14122;1;1;1;2;1;2;1;BlockProcFischi;BlockList;1;75;0;;-999999;13;15883;0;1;1476;17359;1;1;1;1;ProcFischi1;ListBlockFischi;29;1;1;0;0;3;Po2_B;150;2;op;3;2;43;1;29;2;0;TrialProc;1954;1575;Po2_B;182;1620;1801;ListFischi1;0;;2;203;253354;6;13;1641;254995;201;1;1641;1;458;567;1440;1;1
TMS_Ibrahim;53;2;"<?xml version=""1.0""?>\n<Clock xmlns:dt=""urn:schemas-microsoft-com:datatypes""><Description dt:dt=""string"">E-Prime Primary Realtime Clock</Description><StartTime><Timestamp dt:dt=""int"">0</Timestamp><DateUtc dt:dt=""string"">2023-04-14T07:59:38Z</DateUtc></StartTime><FrequencyChanges><FrequencyChange><Frequency dt:dt=""r8"">3312851</Frequency><Timestamp dt:dt=""r8"">24934021085</Timestamp><Current dt:dt=""r8"">0</Current><DateUtc dt:dt=""string"">2023-04-14T07:59:38Z</DateUtc></FrequencyChange></FrequencyChanges></Clock>\n";TMS_Ibrahim-53-2;75.029;1.0.0.561;1;;-835158259;2.0.10.242;2.0.10.242;04-14-2023;14/04/2023 07:59;09:59:39;2.0.10.147;0;;-999999;19;13276;0;1;846;14122;1;1;1;2;1;2;1;BlockProcFischi;BlockList;1;75;0;;-999999;13;15883;0;1;1476;17359;1;1;1;1;ProcFischi1;ListBlockFischi;30;1;2;0;1;5;Pr5_B;125;1;op;5;2;4;1;30;1;0;TrialProc;2745;673;Pr5_B;8;1281;1273;ListFischi1;0;;2;203;261573;11;15;1310;262883;350;1;1310;1;548;363;960;1;1
TMS_Ibrahim;53;2;"<?xml version=""1.0""?>\n<Clock xmlns:dt=""urn:schemas-microsoft-com:datatypes""><Description dt:dt=""string"">E-Prime Primary Realtime Clock</Description><StartTime><Timestamp dt:dt=""int"">0</Timestamp><DateUtc dt:dt=""string"">2023-04-14T07:59:38Z</DateUtc></StartTime><FrequencyChanges><FrequencyChange><Frequency dt:dt=""r8"">3312851</Frequency><Timestamp dt:dt=""r8"">24934021085</Timestamp><Current dt:dt=""r8"">0</Current><DateUtc dt:dt=""string"">2023-04-14T07:59:38Z</DateUtc></FrequencyChange></FrequencyChanges></Clock>\n";TMS_Ibrahim-53-2;75.029;1.0.0.561;1;;-835158259;2.0.10.242;2.0.10.242;04-14-2023;14/04/2023 07:59;09:59:39;2.0.10.147;0;;-999999;19;13276;0;1;846;14122;1;1;1;2;1;2;1;BlockProcFischi;BlockList;1;75;0;;-999999;13;15883;0;1;1476;17359;1;1;1;1;ProcFischi1;ListBlockFischi;31;1;1;0;1;3;Po2_B;150;2;op;3;2;38;1;31;2;0;TrialProc;1630;1581;Po2_B;252;1555;1808;ListFischi1;0;;2;203;269809;12;13;1586;271395;609;1;1586;1;604;402;977;1;1
TMS_Ibrahim;53;2;"<?xml version=""1.0""?>\n<Clock xmlns:dt=""urn:schemas-microsoft-com:datatypes""><Description dt:dt=""string"">E-Prime Primary Realtime Clock</Description><StartTime><Timestamp dt:dt=""int"">0</Timestamp><DateUtc dt:dt=""string"">2023-04-14T07:59:38Z</DateUtc></StartTime><FrequencyChanges><FrequencyChange><Frequency dt:dt=""r8"">3312851</Frequency><Timestamp dt:dt=""r8"">24934021085</Timestamp><Current dt:dt=""r8"">0</Current><DateUtc dt:dt=""string"">2023-04-14T07:59:38Z</DateUtc></FrequencyChange></FrequencyChanges></Clock>\n";TMS_Ibrahim-53-2;75.029;1.0.0.561;1;;-835158259;2.0.10.242;2.0.10.242;04-14-2023;14/04/2023 07:59;09:59:39;2.0.10.147;0;;-999999;19;13276;0;1;846;14122;1;1;1;2;1;2;1;BlockProcFischi;BlockList;1;75;0;;-999999;13;15883;0;1;1476;17359;1;1;1;1;ProcFischi1;ListBlockFischi;32;1;1;1;0;5;Pomod_B;200;4;ug;5;2;64;1;32;4;1;TrialProc;3415;1312;Pomod_B;314;1985;1672;ListFischi1;0;;2;203;278021;10;15;2013;280034;269;1;2013;1;877;355;1744;1;1
TMS_Ibrahim;53;2;"<?xml version=""1.0""?>\n<Clock xmlns:dt=""urn:schemas-microsoft-com:datatypes""><Description dt:dt=""string"">E-Prime Primary Realtime Clock</Description><StartTime><Timestamp dt:dt=""int"">0</Timestamp><DateUtc dt:dt=""string"">2023-04-14T07:59:38Z</DateUtc></StartTime><FrequencyChanges><FrequencyChange><Frequency dt:dt=""r8"">3312851</Frequency><Timestamp dt:dt=""r8"">24934021085</Timestamp><Current dt:dt=""r8"">0</Current><DateUtc dt:dt=""string"">2023-04-14T07:59:38Z</DateUtc></FrequencyChange></FrequencyChanges></Clock>\n";TMS_Ibrahim-53-2;75.029;1.0.0.561;1;;-835158259;2.0.10.242;2.0.10.242;04-14-2023;14/04/2023 07:59;09:59:39;2.0.10.147;0;;-999999;19;13276;0;1;846;14122;1;1;1;2;1;2;1;BlockProcFischi;BlockList;1;75;0;;-999999;13;15883;0;1;1476;17359;1;1;1;1;ProcFischi1;ListBlockFischi;33;1;2;0;0;5;Pr5_B;100;1;op;5;2;14;1;33;1;0;TrialProc;2557;676;Pr5_B;260;1536;1276;ListFischi1;0;;2;203;286615;13;15;1563;288178;347;1;1563;1;875;242;1216;1;1
TMS_Ibrahim;53;2;"<?xml version=""1.0""?>\n<Clock xmlns:dt=""urn:schemas-microsoft-com:datatypes""><Description dt:dt=""string"">E-Prime Primary Realtime Clock</Description><StartTime><Timestamp dt:dt=""int"">0</Timestamp><DateUtc dt:dt=""string"">2023-04-14T07:59:38Z</DateUtc></StartTime><FrequencyChanges><FrequencyChange><Frequency dt:dt=""r8"">3312851</Frequency><Timestamp dt:dt=""r8"">24934021085</Timestamp><Current dt:dt=""r8"">0</Current><DateUtc dt:dt=""string"">2023-04-14T07:59:38Z</DateUtc></FrequencyChange></FrequencyChanges></Clock>\n";TMS_Ibrahim-53-2;75.029;1.0.0.561;1;;-835158259;2.0.10.242;2.0.10.242;04-14-2023;14/04/2023 07:59;09:59:39;2.0.10.147;0;;-999999;19;13276;0;1;846;14122;1;1;1;2;1;2;1;BlockProcFischi;BlockList;1;75;0;;-999999;13;15883;0;1;1476;17359;1;1;1;1;ProcFischi1;ListBlockFischi;34;1;1;0;1;5;Po8_B;200;4;ug;5;2;53;1;34;4;1;TrialProc;2399;1250;Po8_B;124;1459;1584;ListFischi1;0;;2;203;294651;14;15;1479;296130;313;1;1479;1;1176;439;1166;1;1
TMS_Ibrahim;53;2;"<?xml version=""1.0""?>\n<Clock xmlns:dt=""urn:schemas-microsoft-com:datatypes""><Description dt:dt=""string"">E-Prime Primary Realtime Clock</Description><StartTime><Timestamp dt:dt=""int"">0</Timestamp><DateUtc dt:dt=""string"">2023-04-14T07:59:38Z</DateUtc></StartTime><FrequencyChanges><FrequencyChange><Frequency dt:dt=""r8"">3312851</Frequency><Timestamp dt:dt=""r8"">24934021085</Timestamp><Current dt:dt=""r8"">0</Current><DateUtc dt:dt=""string"">2023-04-14T07:59:38Z</DateUtc></FrequencyChange></FrequencyChanges></Clock>\n";TMS_Ibrahim-53-2;75.029;1.0.0.561;1;;-835158259;2.0.10.242;2.0.10.242;04-14-2023;14/04/2023 07:59;09:59:39;2.0.10.147;0;;-999999;19;13276;0;1;846;14122;1;1;1;2;1;2;1;BlockProcFischi;BlockList;1;75;0;;-999999;13;15883;0;1;1476;17359;1;1;1;1;ProcFischi1;ListBlockFischi;35;1;1;0;0;5;Po5_B;175;4;ug;5;2;57;1;35;4;1;TrialProc;2435;981;Po5_B;179;1296;1474;ListFischi1;0;;2;203;303316;12;15;1326;304642;302;1;1326;1;935;592;1024;1;1
TMS_Ibrahim;53;2;"<?xml version=""1.0""?>\n<Clock xmlns:dt=""urn:schemas-microsoft-com:datatypes""><Description dt:dt=""string"">E-Prime Primary Realtime Clock</Description><StartTime><Timestamp dt:dt=""int"">0</Timestamp><DateUtc dt:dt=""string"">2023-04-14T07:59:38Z</DateUtc></StartTime><FrequencyChanges><FrequencyChange><Frequency dt:dt=""r8"">3312851</Frequency><Timestamp dt:dt=""r8"">24934021085</Timestamp><Current dt:dt=""r8"">0</Current><DateUtc dt:dt=""string"">2023-04-14T07:59:38Z</DateUtc></FrequencyChange></FrequencyChanges></Clock>\n";TMS_Ibrahim-53-2;75.029;1.0.0.561;1;;-835158259;2.0.10.242;2.0.10.242;04-14-2023;14/04/2023 07:59;09:59:39;2.0.10.147;0;;-999999;19;13276;0;1;846;14122;1;1;1;2;1;2;1;BlockProcFischi;BlockList;1;75;0;;-999999;13;15883;0;1;1476;17359;1;1;1;1;ProcFischi1;ListBlockFischi;36;1;1;1;0;5;Pomod_B;175;4;ug;5;2;63;1;36;4;1;TrialProc;1167;1311;Pomod_B;146;1817;1671;ListFischi1;0;;2;203;312290;8;151;4879;317169;319;1;1839;1;1221;210;1520;1;1
TMS_Ibrahim;53;2;"<?xml version=""1.0""?>\n<Clock xmlns:dt=""urn:schemas-microsoft-com:datatypes""><Description dt:dt=""string"">E-Prime Primary Realtime Clock</Description><StartTime><Timestamp dt:dt=""int"">0</Timestamp><DateUtc dt:dt=""string"">2023-04-14T07:59:38Z</DateUtc></StartTime><FrequencyChanges><FrequencyChange><Frequency dt:dt=""r8"">3312851</Frequency><Timestamp dt:dt=""r8"">24934021085</Timestamp><Current dt:dt=""r8"">0</Current><DateUtc dt:dt=""string"">2023-04-14T07:59:38Z</DateUtc></FrequencyChange></FrequencyChanges></Clock>\n";TMS_Ibrahim-53-2;75.029;1.0.0.561;1;;-835158259;2.0.10.242;2.0.10.242;04-14-2023;14/04/2023 07:59;09:59:39;2.0.10.147;0;;-999999;19;13276;0;1;846;14122;1;1;1;2;1;2;1;BlockProcFischi;BlockList;1;75;0;;-999999;13;15883;0;1;1476;17359;1;1;1;1;ProcFischi1;ListBlockFischi;37;1;1;0;0;5;Po2_B;150;4;ug;5;2;49;1;37;4;1;TrialProc;2488;1583;Po2_B;64;1746;1810;ListFischi1;0;;2;203;320508;13;15;1765;322273;165;1;1765;1;976;435;1600;1;1
TMS_Ibrahim;53;2;"<?xml version=""1.0""?>\n<Clock xmlns:dt=""urn:schemas-microsoft-com:datatypes""><Description dt:dt=""string"">E-Prime Primary Realtime Clock</Description><StartTime><Timestamp dt:dt=""int"">0</Timestamp><DateUtc dt:dt=""string"">2023-04-14T07:59:38Z</DateUtc></StartTime><FrequencyChanges><FrequencyChange><Frequency dt:dt=""r8"">3312851</Frequency><Timestamp dt:dt=""r8"">24934021085</Timestamp><Current dt:dt=""r8"">0</Current><DateUtc dt:dt=""string"">2023-04-14T07:59:38Z</DateUtc></FrequencyChange></FrequencyChanges></Clock>\n";TMS_Ibrahim-53-2;75.029;1.0.0.561;1;;-835158259;2.0.10.242;2.0.10.242;04-14-2023;14/04/2023 07:59;09:59:39;2.0.10.147;0;;-999999;19;13276;0;1;846;14122;1;1;1;2;1;2;1;BlockProcFischi;BlockList;1;75;0;;-999999;13;15883;0;1;1476;17359;1;1;1;1;ProcFischi1;ListBlockFischi;38;1;1;0;2;3;Po4_B;150;2;op;3;2;45;1;38;2;0;TrialProc;3599;1342;Po4_B;269;1447;1716;ListFischi1;0;;1;203;328665;13;13;1480;330145;264;1;1480;1;1602;576;1216;1;1
TMS_Ibrahim;53;2;"<?xml version=""1.0""?>\n<Clock xmlns:dt=""urn:schemas-microsoft-com:datatypes""><Description dt:dt=""string"">E-Prime Primary Realtime Clock</Description><StartTime><Timestamp dt:dt=""int"">0</Timestamp><DateUtc dt:dt=""string"">2023-04-14T07:59:38Z</DateUtc></StartTime><FrequencyChanges><FrequencyChange><Frequency dt:dt=""r8"">3312851</Frequency><Timestamp dt:dt=""r8"">24934021085</Timestamp><Current dt:dt=""r8"">0</Current><DateUtc dt:dt=""string"">2023-04-14T07:59:38Z</DateUtc></FrequencyChange></FrequencyChanges></Clock>\n";TMS_Ibrahim-53-2;75.029;1.0.0.561;1;;-835158259;2.0.10.242;2.0.10.242;04-14-2023;14/04/2023 07:59;09:59:39;2.0.10.147;0;;-999999;19;13276;0;1;846;14122;1;1;1;2;1;2;1;BlockProcFischi;BlockList;1;75;0;;-999999;13;15883;0;1;1476;17359;1;1;1;1;ProcFischi1;ListBlockFischi;39;1;2;0;1;5;Pr8_B;100;1;op;5;2;5;1;39;1;0;TrialProc;1839;715;Pr8_B;72;1670;1743;ListFischi1;0;;2;203;338595;13;15;1694;340289;254;1;1694;1;551;516;1440;1;1
TMS_Ibrahim;53;2;"<?xml version=""1.0""?>\n<Clock xmlns:dt=""urn:schemas-microsoft-com:datatypes""><Description dt:dt=""string"">E-Prime Primary Realtime Clock</Description><StartTime><Timestamp dt:dt=""int"">0</Timestamp><DateUtc dt:dt=""string"">2023-04-14T07:59:38Z</DateUtc></StartTime><FrequencyChanges><FrequencyChange><Frequency dt:dt=""r8"">3312851</Frequency><Timestamp dt:dt=""r8"">24934021085</Timestamp><Current dt:dt=""r8"">0</Current><DateUtc dt:dt=""string"">2023-04-14T07:59:38Z</DateUtc></FrequencyChange></FrequencyChanges></Clock>\n";TMS_Ibrahim-53-2;75.029;1.0.0.561;1;;-835158259;2.0.10.242;2.0.10.242;04-14-2023;14/04/2023 07:59;09:59:39;2.0.10.147;0;;-999999;19;13276;0;1;846;14122;1;1;1;2;1;2;1;BlockProcFischi;BlockList;1;75;0;;-999999;13;15883;0;1;1476;17359;1;1;1;1;ProcFischi1;ListBlockFischi;40;1;1;0;0;5;Po3_B;125;4;ug;5;2;55;1;40;4;1;TrialProc;4696;1320;Po3_B;83;1503;1586;ListFischi1;0;;2;203;347241;17;151;5527;352768;439;1;1527;1;2359;424;1088;1;1
TMS_Ibrahim;53;2;"<?xml version=""1.0""?>\n<Clock xmlns:dt=""urn:schemas-microsoft-com:datatypes""><Description dt:dt=""string"">E-Prime Primary Realtime Clock</Description><StartTime><Timestamp dt:dt=""int"">0</Timestamp><DateUtc dt:dt=""string"">2023-04-14T07:59:38Z</DateUtc></StartTime><FrequencyChanges><FrequencyChange><Frequency dt:dt=""r8"">3312851</Frequency><Timestamp dt:dt=""r8"">24934021085</Timestamp><Current dt:dt=""r8"">0</Current><DateUtc dt:dt=""string"">2023-04-14T07:59:38Z</DateUtc></FrequencyChange></FrequencyChanges></Clock>\n";TMS_Ibrahim-53-2;75.029;1.0.0.561;1;;-835158259;2.0.10.242;2.0.10.242;04-14-2023;14/04/2023 07:59;09:59:39;2.0.10.147;0;;-999999;19;13276;0;1;846;14122;1;1;1;2;1;2;1;BlockProcFischi;BlockList;1;75;0;;-999999;13;15883;0;1;1476;17359;1;1;1;1;ProcFischi1;ListBlockFischi;41;1;2;0;0;3;Pr4_B;100;3;ug;3;2;19;1;41;3;1;TrialProc;3172;679;Pr4_B;35;1288;1253;ListFischi1;0;;2;203;359503;17;13;1313;360816;337;1;1313;1;503;343;976;1;1
TMS_Ibrahim;53;2;"<?xml version=""1.0""?>\n<Clock xmlns:dt=""urn:schemas-microsoft-com:datatypes""><Description dt:dt=""string"">E-Prime Primary Realtime Clock</Description><StartTime><Timestamp dt:dt=""int"">0</Timestamp><DateUtc dt:dt=""string"">2023-04-14T07:59:38Z</DateUtc></StartTime><FrequencyChanges><FrequencyChange><Frequency dt:dt=""r8"">3312851</Frequency><Timestamp dt:dt=""r8"">24934021085</Timestamp><Current dt:dt=""r8"">0</Current><DateUtc dt:dt=""string"">2023-04-14T07:59:38Z</DateUtc></FrequencyChange></FrequencyChanges></Clock>\n";TMS_Ibrahim-53-2;75.029;1.0.0.561;1;;-835158259;2.0.10.242;2.0.10.242;04-14-2023;14/04/2023 07:59;09:59:39;2.0.10.147;0;;-999999;19;13276;0;1;846;14122;1;1;1;2;1;2;1;BlockProcFischi;BlockList;1;75;0;;-999999;13;15883;0;1;1476;17359;1;1;1;1;ProcFischi1;ListBlockFischi;42;1;2;0;0;3;Pr8_B;75;3;ug;3;2;26;1;42;3;1;TrialProc;3445;713;Pr8_B;50;1689;1740;ListFischi1;0;;2;203;368320;10;13;1712;370032;208;1;1712;1;1209;433;1504;1;1
TMS_Ibrahim;53;2;"<?xml version=""1.0""?>\n<Clock xmlns:dt=""urn:schemas-microsoft-com:datatypes""><Description dt:dt=""string"">E-Prime Primary Realtime Clock</Description><StartTime><Timestamp dt:dt=""int"">0</Timestamp><DateUtc dt:dt=""string"">2023-04-14T07:59:38Z</DateUtc></StartTime><FrequencyChanges><FrequencyChange><Frequency dt:dt=""r8"">3312851</Frequency><Timestamp dt:dt=""r8"">24934021085</Timestamp><Current dt:dt=""r8"">0</Current><DateUtc dt:dt=""string"">2023-04-14T07:59:38Z</DateUtc></FrequencyChange></FrequencyChanges></Clock>\n";TMS_Ibrahim-53-2;75.029;1.0.0.561;1;;-835158259;2.0.10.242;2.0.10.242;04-14-2023;14/04/2023 07:59;09:59:39;2.0.10.147;0;;-999999;19;13276;0;1;846;14122;1;1;1;2;1;2;1;BlockProcFischi;BlockList;1;75;0;;-999999;13;15883;0;1;1476;17359;1;1;1;1;ProcFischi1;ListBlockFischi;43;1;2;1;0;3;Prmod_B;75;3;ug;3;2;32;1;43;3;1;TrialProc;2165;1318;Prmod_B;18;1670;1651;ListFischi1;0;;2;203;377510;16;13;1706;379216;234;1;1706;1;551;549;1472;1;1
TMS_Ibrahim;53;2;"<?xml version=""1.0""?>\n<Clock xmlns:dt=""urn:schemas-microsoft-com:datatypes""><Description dt:dt=""string"">E-Prime Primary Realtime Clock</Description><StartTime><Timestamp dt:dt=""int"">0</Timestamp><DateUtc dt:dt=""string"">2023-04-14T07:59:38Z</DateUtc></StartTime><FrequencyChanges><FrequencyChange><Frequency dt:dt=""r8"">3312851</Frequency><Timestamp dt:dt=""r8"">24934021085</Timestamp><Current dt:dt=""r8"">0</Current><DateUtc dt:dt=""string"">2023-04-14T07:59:38Z</DateUtc></FrequencyChange></FrequencyChanges></Clock>\n";TMS_Ibrahim-53-2;75.029;1.0.0.561;1;;-835158259;2.0.10.242;2.0.10.242;04-14-2023;14/04/2023 07:59;09:59:39;2.0.10.147;0;;-999999;19;13276;0;1;846;14122;1;1;1;2;1;2;1;BlockProcFischi;BlockList;1;75;0;;-999999;13;15883;0;1;1476;17359;1;1;1;1;ProcFischi1;ListBlockFischi;44;1;1;0;0;3;Po3_B;175;2;op;3;2;39;1;44;2;0;TrialProc;3418;1311;Po3_B;79;1499;1577;ListFischi1;0;;2;203;386647;9;13333;3912;390559;264;1;1528;1;1983;387;1264;1;1
TMS_Ibrahim;53;2;"<?xml version=""1.0""?>\n<Clock xmlns:dt=""urn:schemas-microsoft-com:datatypes""><Description dt:dt=""string"">E-Prime Primary Realtime Clock</Description><StartTime><Timestamp dt:dt=""int"">0</Timestamp><DateUtc dt:dt=""string"">2023-04-14T07:59:38Z</DateUtc></StartTime><FrequencyChanges><FrequencyChange><Frequency dt:dt=""r8"">3312851</Frequency><Timestamp dt:dt=""r8"">24934021085</Timestamp><Current dt:dt=""r8"">0</Current><DateUtc dt:dt=""string"">2023-04-14T07:59:38Z</DateUtc></FrequencyChange></FrequencyChanges></Clock>\n";TMS_Ibrahim-53-2;75.029;1.0.0.561;1;;-835158259;2.0.10.242;2.0.10.242;04-14-2023;14/04/2023 07:59;09:59:39;2.0.10.147;0;;-999999;19;13276;0;1;846;14122;1;1;1;2;1;2;1;BlockProcFischi;BlockList;1;75;0;;-999999;13;15883;0;1;1476;17359;1;1;1;1;ProcFischi1;ListBlockFischi;45;1;1;0;0;5;Po4_B;100;4;ug;5;2;56;1;45;4;1;TrialProc;2120;1336;Po4_B;123;1832;1709;ListFischi1;0;;2;203;397365;7;15;1866;399231;570;1;1866;1;705;547;1296;1;1
TMS_Ibrahim;53;2;"<?xml version=""1.0""?>\n<Clock xmlns:dt=""urn:schemas-microsoft-com:datatypes""><Description dt:dt=""string"">E-Prime Primary Realtime Clock</Description><StartTime><Timestamp dt:dt=""int"">0</Timestamp><DateUtc dt:dt=""string"">2023-04-14T07:59:38Z</DateUtc></StartTime><FrequencyChanges><FrequencyChange><Frequency dt:dt=""r8"">3312851</Frequency><Timestamp dt:dt=""r8"">24934021085</Timestamp><Current dt:dt=""r8"">0</Current><DateUtc dt:dt=""string"">2023-04-14T07:59:38Z</DateUtc></FrequencyChange></FrequencyChanges></Clock>\n";TMS_Ibrahim-53-2;75.029;1.0.0.561;1;;-835158259;2.0.10.242;2.0.10.242;04-14-2023;14/04/2023 07:59;09:59:39;2.0.10.147;0;;-999999;19;13276;0;1;846;14122;1;1;1;2;1;2;1;BlockProcFischi;BlockList;1;75;0;;-999999;13;15883;0;1;1476;17359;1;1;1;1;ProcFischi1;ListBlockFischi;46;1;1;0;0;5;Po2_B;100;4;ug;5;2;54;1;46;4;1;TrialProc;2127;1832;Po2_B;166;1639;1805;ListFischi1;0;;2;203;406905;10;15;1670;408575;438;1;1670;1;605;533;1232;1;1
TMS_Ibrahim;53;2;"<?xml version=""1.0""?>\n<Clock xmlns:dt=""urn:schemas-microsoft-com:datatypes""><Description dt:dt=""string"">E-Prime Primary Realtime Clock</Description><StartTime><Timestamp dt:dt=""int"">0</Timestamp><DateUtc dt:dt=""string"">2023-04-14T07:59:38Z</DateUtc></StartTime><FrequencyChanges><FrequencyChange><Frequency dt:dt=""r8"">3312851</Frequency><Timestamp dt:dt=""r8"">24934021085</Timestamp><Current dt:dt=""r8"">0</Current><DateUtc dt:dt=""string"">2023-04-14T07:59:38Z</DateUtc></FrequencyChange></FrequencyChanges></Clock>\n";TMS_Ibrahim-53-2;75.029;1.0.0.561;1;;-835158259;2.0.10.242;2.0.10.242;04-14-2023;14/04/2023 07:59;09:59:39;2.0.10.147;0;;-999999;19;13276;0;1;846;14122;1;1;1;2;1;2;1;BlockProcFischi;BlockList;1;75;0;;-999999;13;15883;0;1;1476;17359;1;1;1;1;ProcFischi1;ListBlockFischi;47;1;1;0;0;3;Po5_B;150;2;op;3;2;36;1;47;2;0;TrialProc;1693;977;Po5_B;178;1292;1469;ListFischi1;0;;3;201;414197;8;13;1322;415519;554;1;1322;1;507;277;768;1;1
TMS_Ibrahim;53;2;"<?xml version=""1.0""?>\n<Clock xmlns:dt=""urn:schemas-microsoft-com:datatypes""><Description dt:dt=""string"">E-Prime Primary Realtime Clock</Description><StartTime><Timestamp dt:dt=""int"">0</Timestamp><DateUtc dt:dt=""string"">2023-04-14T07:59:38Z</DateUtc></StartTime><FrequencyChanges><FrequencyChange><Frequency dt:dt=""r8"">3312851</Frequency><Timestamp dt:dt=""r8"">24934021085</Timestamp><Current dt:dt=""r8"">0</Current><DateUtc dt:dt=""string"">2023-04-14T07:59:38Z</DateUtc></FrequencyChange></FrequencyChanges></Clock>\n";TMS_Ibrahim-53-2;75.029;1.0.0.561;1;;-835158259;2.0.10.242;2.0.10.242;04-14-2023;14/04/2023 07:59;09:59:39;2.0.10.147;0;;-999999;19;13276;0;1;846;14122;1;1;1;2;1;2;1;BlockProcFischi;BlockList;1;75;0;;-999999;13;15883;0;1;1476;17359;1;1;1;1;ProcFischi1;ListBlockFischi;48;1;1;0;1;5;Po2_B;100;4;ug;5;2;59;1;48;4;1;TrialProc;1932;1577;Po2_B;169;1636;1805;ListFischi1;0;;2;203;421568;8;15;1662;423230;414;1;1662;1;651;214;1248;1;1
TMS_Ibrahim;53;2;"<?xml version=""1.0""?>\n<Clock xmlns:dt=""urn:schemas-microsoft-com:datatypes""><Description dt:dt=""string"">E-Prime Primary Realtime Clock</Description><StartTime><Timestamp dt:dt=""int"">0</Timestamp><DateUtc dt:dt=""string"">2023-04-14T07:59:38Z</DateUtc></StartTime><FrequencyChanges><FrequencyChange><Frequency dt:dt=""r8"">3312851</Frequency><Timestamp dt:dt=""r8"">24934021085</Timestamp><Current dt:dt=""r8"">0</Current><DateUtc dt:dt=""string"">2023-04-14T07:59:38Z</DateUtc></FrequencyChange></FrequencyChanges></Clock>\n";TMS_Ibrahim-53-2;75.029;1.0.0.561;1;;-835158259;2.0.10.242;2.0.10.242;04-14-2023;14/04/2023 07:59;09:59:39;2.0.10.147;0;;-999999;19;13276;0;1;846;14122;1;1;1;2;1;2;1;BlockProcFischi;BlockList;1;75;0;;-999999;13;15883;0;1;1476;17359;1;1;1;1;ProcFischi1;ListBlockFischi;49;1;1;0;1;3;Po5_B;150;2;op;3;2;41;1;49;2;0;TrialProc;1649;985;Po5_B;6;1473;1479;ListFischi1;0;;2;203;429864;15;131;3974;433838;518;1;1494;1;689;407;976;1;1
TMS_Ibrahim;53;2;"<?xml version=""1.0""?>\n<Clock xmlns:dt=""urn:schemas-microsoft-com:datatypes""><Description dt:dt=""string"">E-Prime Primary Realtime Clock</Description><StartTime><Timestamp dt:dt=""int"">0</Timestamp><DateUtc dt:dt=""string"">2023-04-14T07:59:38Z</DateUtc></StartTime><FrequencyChanges><FrequencyChange><Frequency dt:dt=""r8"">3312851</Frequency><Timestamp dt:dt=""r8"">24934021085</Timestamp><Current dt:dt=""r8"">0</Current><DateUtc dt:dt=""string"">2023-04-14T07:59:38Z</DateUtc></FrequencyChange></FrequencyChanges></Clock>\n";TMS_Ibrahim-53-2;75.029;1.0.0.561;1;;-835158259;2.0.10.242;2.0.10.242;04-14-2023;14/04/2023 07:59;09:59:39;2.0.10.147;0;;-999999;19;13276;0;1;846;14122;1;1;1;2;1;2;1;BlockProcFischi;BlockList;1;75;0;;-999999;13;15883;0;1;1476;17359;1;1;1;1;ProcFischi1;ListBlockFischi;50;1;2;0;0;3;Pr5_B;50;3;ug;3;2;25;1;50;3;1;TrialProc;1880;676;Pr5_B;264;1541;1276;ListFischi1;0;;1;203;437517;13;13;1569;439086;385;1;1569;1;750;407;1184;1;1
TMS_Ibrahim;53;2;"<?xml version=""1.0""?>\n<Clock xmlns:dt=""urn:schemas-microsoft-com:datatypes""><Description dt:dt=""string"">E-Prime Primary Realtime Clock</Description><StartTime><Timestamp dt:dt=""int"">0</Timestamp><DateUtc dt:dt=""string"">2023-04-14T07:59:38Z</DateUtc></StartTime><FrequencyChanges><FrequencyChange><Frequency dt:dt=""r8"">3312851</Frequency><Timestamp dt:dt=""r8"">24934021085</Timestamp><Current dt:dt=""r8"">0</Current><DateUtc dt:dt=""string"">2023-04-14T07:59:38Z</DateUtc></FrequencyChange></FrequencyChanges></Clock>\n";TMS_Ibrahim-53-2;75.029;1.0.0.561;1;;-835158259;2.0.10.242;2.0.10.242;04-14-2023;14/04/2023 07:59;09:59:39;2.0.10.147;0;;-999999;19;13276;0;1;846;14122;1;1;1;2;1;2;1;BlockProcFischi;BlockList;1;75;0;;-999999;13;15883;0;1;1476;17359;1;1;1;1;ProcFischi1;ListBlockFischi;51;1;1;0;2;5;Po5_B;100;4;ug;5;2;52;1;51;4;1;TrialProc;1973;979;Po5_B;34;1438;1472;ListFischi1;0;;2;203;447276;10;15;1458;448734;338;1;1458;1;846;274;1120;1;1
TMS_Ibrahim;53;2;"<?xml version=""1.0""?>\n<Clock xmlns:dt=""urn:schemas-microsoft-com:datatypes""><Description dt:dt=""string"">E-Prime Primary Realtime Clock</Description><StartTime><Timestamp dt:dt=""int"">0</Timestamp><DateUtc dt:dt=""string"">2023-04-14T07:59:38Z</DateUtc></StartTime><FrequencyChanges><FrequencyChange><Frequency dt:dt=""r8"">3312851</Frequency><Timestamp dt:dt=""r8"">24934021085</Timestamp><Current dt:dt=""r8"">0</Current><DateUtc dt:dt=""string"">2023-04-14T07:59:38Z</DateUtc></FrequencyChange></FrequencyChanges></Clock>\n";TMS_Ibrahim-53-2;75.029;1.0.0.561;1;;-835158259;2.0.10.242;2.0.10.242;04-14-2023;14/04/2023 07:59;09:59:39;2.0.10.147;0;;-999999;19;13276;0;1;846;14122;1;1;1;2;1;2;1;BlockProcFischi;BlockList;1;75;0;;-999999;13;15883;0;1;1476;17359;1;1;1;1;ProcFischi1;ListBlockFischi;52;1;1;0;0;5;Po4_B;75;4;ug;5;2;61;1;52;4;1;TrialProc;1346;1344;Po4_B;51;1666;1716;ListFischi1;0;;2;201;454468;15;155;2618;457086;266;1;1690;1;659;294;1424;1;1
TMS_Ibrahim;53;2;"<?xml version=""1.0""?>\n<Clock xmlns:dt=""urn:schemas-microsoft-com:datatypes""><Description dt:dt=""string"">E-Prime Primary Realtime Clock</Description><StartTime><Timestamp dt:dt=""int"">0</Timestamp><DateUtc dt:dt=""string"">2023-04-14T07:59:38Z</DateUtc></StartTime><FrequencyChanges><FrequencyChange><Frequency dt:dt=""r8"">3312851</Frequency><Timestamp dt:dt=""r8"">24934021085</Timestamp><Current dt:dt=""r8"">0</Current><DateUtc dt:dt=""string"">2023-04-14T07:59:38Z</DateUtc></FrequencyChange></FrequencyChanges></Clock>\n";TMS_Ibrahim-53-2;75.029;1.0.0.561;1;;-835158259;2.0.10.242;2.0.10.242;04-14-2023;14/04/2023 07:59;09:59:39;2.0.10.147;0;;-999999;19;13276;0;1;846;14122;1;1;1;2;1;2;1;BlockProcFischi;BlockList;1;75;0;;-999999;13;15883;0;1;1476;17359;1;1;1;1;ProcFischi1;ListBlockFischi;53;1;1;0;0;3;Po3_B;125;2;op;3;2;44;1;53;2;0;TrialProc;2983;1316;Po3_B;155;1428;1582;ListFischi1;0;;2;203;462134;13;133;1543;463677;313;1;1463;1;636;475;1150;1;1
TMS_Ibrahim;53;2;"<?xml version=""1.0""?>\n<Clock xmlns:dt=""urn:schemas-microsoft-com:datatypes""><Description dt:dt=""string"">E-Prime Primary Realtime Clock</Description><StartTime><Timestamp dt:dt=""int"">0</Timestamp><DateUtc dt:dt=""string"">2023-04-14T07:59:38Z</DateUtc></StartTime><FrequencyChanges><FrequencyChange><Frequency dt:dt=""r8"">3312851</Frequency><Timestamp dt:dt=""r8"">24934021085</Timestamp><Current dt:dt=""r8"">0</Current><DateUtc dt:dt=""string"">2023-04-14T07:59:38Z</DateUtc></FrequencyChange></FrequencyChanges></Clock>\n";TMS_Ibrahim-53-2;75.029;1.0.0.561;1;;-835158259;2.0.10.242;2.0.10.242;04-14-2023;14/04/2023 07:59;09:59:39;2.0.10.147;0;;-999999;19;13276;0;1;846;14122;1;1;1;2;1;2;1;BlockProcFischi;BlockList;1;75;0;;-999999;13;15883;0;1;1476;17359;1;1;1;1;ProcFischi1;ListBlockFischi;54;1;1;0;1;3;Po4_B;125;2;op;3;2;35;1;54;2;0;TrialProc;3216;1342;Po4_B;281;1434;1714;ListFischi1;0;;1;203;470253;11;133;2288;472541;352;1;1456;1;1129;383;1104;1;1
TMS_Ibrahim;53;2;"<?xml version=""1.0""?>\n<Clock xmlns:dt=""urn:schemas-microsoft-com:datatypes""><Description dt:dt=""string"">E-Prime Primary Realtime Clock</Description><StartTime><Timestamp dt:dt=""int"">0</Timestamp><DateUtc dt:dt=""string"">2023-04-14T07:59:38Z</DateUtc></StartTime><FrequencyChanges><FrequencyChange><Frequency dt:dt=""r8"">3312851</Frequency><Timestamp dt:dt=""r8"">24934021085</Timestamp><Current dt:dt=""r8"">0</Current><DateUtc dt:dt=""string"">2023-04-14T07:59:38Z</DateUtc></FrequencyChange></FrequencyChanges></Clock>\n";TMS_Ibrahim-53-2;75.029;1.0.0.561;1;;-835158259;2.0.10.242;2.0.10.242;04-14-2023;14/04/2023 07:59;09:59:39;2.0.10.147;0;;-999999;19;13276;0;1;846;14122;1;1;1;2;1;2;1;BlockProcFischi;BlockList;1;75;0;;-999999;13;15883;0;1;1476;17359;1;1;1;1;ProcFischi1;ListBlockFischi;55;1;2;0;1;3;Pr5_B;50;3;ug;3;2;20;1;55;3;1;TrialProc;2796;674;Pr5_B;185;1459;1275;ListFischi1;0;;2;203;478423;11;13;1494;479917;454;1;1494;1;943;468;1040;1;1
TMS_Ibrahim;53;2;"<?xml version=""1.0""?>\n<Clock xmlns:dt=""urn:schemas-microsoft-com:datatypes""><Description dt:dt=""string"">E-Prime Primary Realtime Clock</Description><StartTime><Timestamp dt:dt=""int"">0</Timestamp><DateUtc dt:dt=""string"">2023-04-14T07:59:38Z</DateUtc></StartTime><FrequencyChanges><FrequencyChange><Frequency dt:dt=""r8"">3312851</Frequency><Timestamp dt:dt=""r8"">24934021085</Timestamp><Current dt:dt=""r8"">0</Current><DateUtc dt:dt=""string"">2023-04-14T07:59:38Z</DateUtc></FrequencyChange></FrequencyChanges></Clock>\n";TMS_Ibrahim-53-2;75.029;1.0.0.561;1;;-835158259;2.0.10.242;2.0.10.242;04-14-2023;14/04/2023 07:59;09:59:39;2.0.10.147;0;;-999999;19;13276;0;1;846;14122;1;1;1;2;1;2;1;BlockProcFischi;BlockList;1;75;0;;-999999;13;15883;0;1;1476;17359;1;1;1;1;ProcFischi1;ListBlockFischi;56;1;2;0;0;5;Pr5_B;75;1;op;5;2;9;1;56;1;0;TrialProc;1102;671;Pr5_B;96;1368;1272;ListFischi1;0;;2;203;486809;9;15;1396;488205;340;1;1396;1;2115;271;1056;1;1
TMS_Ibrahim;53;2;"<?xml version=""1.0""?>\n<Clock xmlns:dt=""urn:schemas-microsoft-com:datatypes""><Description dt:dt=""string"">E-Prime Primary Realtime Clock</Description><StartTime><Timestamp dt:dt=""int"">0</Timestamp><DateUtc dt:dt=""string"">2023-04-14T07:59:38Z</DateUtc></StartTime><FrequencyChanges><FrequencyChange><Frequency dt:dt=""r8"">3312851</Frequency><Timestamp dt:dt=""r8"">24934021085</Timestamp><Current dt:dt=""r8"">0</Current><DateUtc dt:dt=""string"">2023-04-14T07:59:38Z</DateUtc></FrequencyChange></FrequencyChanges></Clock>\n";TMS_Ibrahim-53-2;75.029;1.0.0.561;1;;-835158259;2.0.10.242;2.0.10.242;04-14-2023;14/04/2023 07:59;09:59:39;2.0.10.147;0;;-999999;19;13276;0;1;846;14122;1;1;1;2;1;2;1;BlockProcFischi;BlockList;1;75;0;;-999999;13;15883;0;1;1476;17359;1;1;1;1;ProcFischi1;ListBlockFischi;57;1;2;0;0;5;Pr3_B;75;1;op;5;2;2;1;57;1;0;TrialProc;1763;721;Pr3_B;176;1546;1721;ListFischi1;0;;2;203;494623;18;15;1581;496204;350;1;1581;1;1835;544;1231;1;1
TMS_Ibrahim;53;2;"<?xml version=""1.0""?>\n<Clock xmlns:dt=""urn:schemas-microsoft-com:datatypes""><Description dt:dt=""string"">E-Prime Primary Realtime Clock</Description><StartTime><Timestamp dt:dt=""int"">0</Timestamp><DateUtc dt:dt=""string"">2023-04-14T07:59:38Z</DateUtc></StartTime><FrequencyChanges><FrequencyChange><Frequency dt:dt=""r8"">3312851</Frequency><Timestamp dt:dt=""r8"">24934021085</Timestamp><Current dt:dt=""r8"">0</Current><DateUtc dt:dt=""string"">2023-04-14T07:59:38Z</DateUtc></FrequencyChange></FrequencyChanges></Clock>\n";TMS_Ibrahim-53-2;75.029;1.0.0.561;1;;-835158259;2.0.10.242;2.0.10.242;04-14-2023;14/04/2023 07:59;09:59:39;2.0.10.147;0;;-999999;19;13276;0;1;846;14122;1;1;1;2;1;2;1;BlockProcFischi;BlockList;1;75;0;;-999999;13;15883;0;1;1476;17359;1;1;1;1;ProcFischi1;ListBlockFischi;58;1;1;0;0;5;Po3_B;75;4;ug;5;2;60;1;58;4;1;TrialProc;2378;1310;Po3_B;371;1948;1577;ListFischi1;0;;2;203;503723;8;15;1969;505692;449;1;1969;1;972;305;1520;1;1
TMS_Ibrahim;53;2;"<?xml version=""1.0""?>\n<Clock xmlns:dt=""urn:schemas-microsoft-com:datatypes""><Description dt:dt=""string"">E-Prime Primary Realtime Clock</Description><StartTime><Timestamp dt:dt=""int"">0</Timestamp><DateUtc dt:dt=""string"">2023-04-14T07:59:38Z</DateUtc></StartTime><FrequencyChanges><FrequencyChange><Frequency dt:dt=""r8"">3312851</Frequency><Timestamp dt:dt=""r8"">24934021085</Timestamp><Current dt:dt=""r8"">0</Current><DateUtc dt:dt=""string"">2023-04-14T07:59:38Z</DateUtc></FrequencyChange></FrequencyChanges></Clock>\n";TMS_Ibrahim-53-2;75.029;1.0.0.561;1;;-835158259;2.0.10.242;2.0.10.242;04-14-2023;14/04/2023 07:59;09:59:39;2.0.10.147;0;;-999999;19;13276;0;1;846;14122;1;1;1;2;1;2;1;BlockProcFischi;BlockList;1;75;0;;-999999;13;15883;0;1;1476;17359;1;1;1;1;ProcFischi1;ListBlockFischi;59;1;2;0;2;3;Pr3_B;50;3;ug;3;2;28;1;59;3;1;TrialProc;1991;713;Pr3_B;158;1554;1712;ListFischi1;0;;2;203;511717;11;13;1575;513292;407;1;1575;1;1652;560;1168;1;1
TMS_Ibrahim;53;2;"<?xml version=""1.0""?>\n<Clock xmlns:dt=""urn:schemas-microsoft-com:datatypes""><Description dt:dt=""string"">E-Prime Primary Realtime Clock</Description><StartTime><Timestamp dt:dt=""int"">0</Timestamp><DateUtc dt:dt=""string"">2023-04-14T07:59:38Z</DateUtc></StartTime><FrequencyChanges><FrequencyChange><Frequency dt:dt=""r8"">3312851</Frequency><Timestamp dt:dt=""r8"">24934021085</Timestamp><Current dt:dt=""r8"">0</Current><DateUtc dt:dt=""string"">2023-04-14T07:59:38Z</DateUtc></FrequencyChange></FrequencyChanges></Clock>\n";TMS_Ibrahim-53-2;75.029;1.0.0.561;1;;-835158259;2.0.10.242;2.0.10.242;04-14-2023;14/04/2023 07:59;09:59:39;2.0.10.147;0;;-999999;19;13276;0;1;846;14122;1;1;1;2;1;2;1;BlockProcFischi;BlockList;1;75;0;;-999999;13;15883;0;1;1476;17359;1;1;1;1;ProcFischi1;ListBlockFischi;60;1;2;0;0;3;Pr4_B;75;3;ug;3;2;24;1;60;3;1;TrialProc;3593;679;Pr4_B;114;1365;1252;ListFischi1;0;;2;203;520150;15;133;1782;521932;358;1;1398;1;1277;545;1040;1;1
TMS_Ibrahim;53;2;"<?xml version=""1.0""?>\n<Clock xmlns:dt=""urn:schemas-microsoft-com:datatypes""><Description dt:dt=""string"">E-Prime Primary Realtime Clock</Description><StartTime><Timestamp dt:dt=""int"">0</Timestamp><DateUtc dt:dt=""string"">2023-04-14T07:59:38Z</DateUtc></StartTime><FrequencyChanges><FrequencyChange><Frequency dt:dt=""r8"">3312851</Frequency><Timestamp dt:dt=""r8"">24934021085</Timestamp><Current dt:dt=""r8"">0</Current><DateUtc dt:dt=""string"">2023-04-14T07:59:38Z</DateUtc></FrequencyChange></FrequencyChanges></Clock>\n";TMS_Ibrahim-53-2;75.029;1.0.0.561;1;;-835158259;2.0.10.242;2.0.10.242;04-14-2023;14/04/2023 07:59;09:59:39;2.0.10.147;0;;-999999;19;13276;0;1;846;14122;1;1;1;2;1;2;1;BlockProcFischi;BlockList;1;75;0;;-999999;13;15883;0;1;1476;17359;1;1;1;1;ProcFischi1;ListBlockFischi;61;1;2;0;1;3;Pr2_B;75;3;ug;3;2;27;1;61;3;1;TrialProc;1915;715;Pr2_B;17;1231;1248;ListFischi1;0;;2;203;529483;12;13;1265;530748;305;1;1265;1;733;596;960;1;1
TMS_Ibrahim;53;2;"<?xml version=""1.0""?>\n<Clock xmlns:dt=""urn:schemas-microsoft-com:datatypes""><Description dt:dt=""string"">E-Prime Primary Realtime Clock</Description><StartTime><Timestamp dt:dt=""int"">0</Timestamp><DateUtc dt:dt=""string"">2023-04-14T07:59:38Z</DateUtc></StartTime><FrequencyChanges><FrequencyChange><Frequency dt:dt=""r8"">3312851</Frequency><Timestamp dt:dt=""r8"">24934021085</Timestamp><Current dt:dt=""r8"">0</Current><DateUtc dt:dt=""string"">2023-04-14T07:59:38Z</DateUtc></FrequencyChange></FrequencyChanges></Clock>\n";TMS_Ibrahim-53-2;75.029;1.0.0.561;1;;-835158259;2.0.10.242;2.0.10.242;04-14-2023;14/04/2023 07:59;09:59:39;2.0.10.147;0;;-999999;19;13276;0;1;846;14122;1;1;1;2;1;2;1;BlockProcFischi;BlockList;1;75;0;;-999999;13;15883;0;1;1476;17359;1;1;1;1;ProcFischi1;ListBlockFischi;62;1;2;0;0;3;Pr3_B;50;3;ug;3;2;23;1;62;3;1;TrialProc;3327;718;Pr3_B;183;1535;1718;ListFischi1;0;;3;201;537048;17;13;1555;538603;707;1;1555;1;869;592;848;1;1
TMS_Ibrahim;53;2;"<?xml version=""1.0""?>\n<Clock xmlns:dt=""urn:schemas-microsoft-com:datatypes""><Description dt:dt=""string"">E-Prime Primary Realtime Clock</Description><StartTime><Timestamp dt:dt=""int"">0</Timestamp><DateUtc dt:dt=""string"">2023-04-14T07:59:38Z</DateUtc></StartTime><FrequencyChanges><FrequencyChange><Frequency dt:dt=""r8"">3312851</Frequency><Timestamp dt:dt=""r8"">24934021085</Timestamp><Current dt:dt=""r8"">0</Current><DateUtc dt:dt=""string"">2023-04-14T07:59:38Z</DateUtc></FrequencyChange></FrequencyChanges></Clock>\n";TMS_Ibrahim-53-2;75.029;1.0.0.561;1;;-835158259;2.0.10.242;2.0.10.242;04-14-2023;14/04/2023 07:59;09:59:39;2.0.10.147;0;;-999999;19;13276;0;1;846;14122;1;1;1;2;1;2;1;BlockProcFischi;BlockList;1;75;0;;-999999;13;15883;0;1;1476;17359;1;1;1;1;ProcFischi1;ListBlockFischi;63;1;2;0;1;5;Pr2_B;75;1;op;5;2;1;1;63;1;0;TrialProc;2262;719;Pr2_B;105;1356;1252;ListFischi1;0;;2;203;545926;16;15;1381;547307;245;1;1381;1;1254;508;1136;1;1
TMS_Ibrahim;53;2;"<?xml version=""1.0""?>\n<Clock xmlns:dt=""urn:schemas-microsoft-com:datatypes""><Description dt:dt=""string"">E-Prime Primary Realtime Clock</Description><StartTime><Timestamp dt:dt=""int"">0</Timestamp><DateUtc dt:dt=""string"">2023-04-14T07:59:38Z</DateUtc></StartTime><FrequencyChanges><FrequencyChange><Frequency dt:dt=""r8"">3312851</Frequency><Timestamp dt:dt=""r8"">24934021085</Timestamp><Current dt:dt=""r8"">0</Current><DateUtc dt:dt=""string"">2023-04-14T07:59:38Z</DateUtc></FrequencyChange></FrequencyChanges></Clock>\n";TMS_Ibrahim-53-2;75.029;1.0.0.561;1;;-835158259;2.0.10.242;2.0.10.242;04-14-2023;14/04/2023 07:59;09:59:39;2.0.10.147;0;;-999999;19;13276;0;1;846;14122;1;1;1;2;1;2;1;BlockProcFischi;BlockList;1;75;0;;-999999;13;15883;0;1;1476;17359;1;1;1;1;ProcFischi1;ListBlockFischi;64;1;2;0;2;5;Pr2_B;75;1;op;5;2;6;1;64;1;0;TrialProc;2558;713;Pr2_B;5;1250;1246;ListFischi1;0;;1;203;554475;10;15;1280;555755;288;1;1280;1;778;287;992;1;1
TMS_Ibrahim;53;4;"<?xml version=""1.0""?>\n<Clock xmlns:dt=""urn:schemas-microsoft-com:datatypes""><Description dt:dt=""string"">E-Prime Primary Realtime Clock</Description><StartTime><Timestamp dt:dt=""int"">0</Timestamp><DateUtc dt:dt=""string"">2023-04-14T08:47:13Z</DateUtc></StartTime><FrequencyChanges><FrequencyChange><Frequency dt:dt=""r8"">3312851</Frequency><Timestamp dt:dt=""r8"">34391187246</Timestamp><Current dt:dt=""r8"">0</Current><DateUtc dt:dt=""string"">2023-04-14T08:47:13Z</DateUtc></FrequencyChange></FrequencyChanges></Clock>\n";TMS_Ibrahim-53-4;75.029;1.0.0.561;1;;32107497;2.0.10.242;2.0.10.242;04-14-2023;14/04/2023 08:47;10:47:13;2.0.10.147;0;;-999999;22;15461;0;1;941;16402;1;1;1;2;1;1;1;BlockProcFischi;BlockList;1;25;0;;-999999;13;17612;0;1;932;18544;1;1;1;1;ProcFischi1;ListBlockFischi;1;1;1;0;0;5;Po4_B;250;4;ug;5;2;56;1;1;4;1;TrialProc;2368;1403;Po4_B;305;1431;1736;ListFischi1;0;;5;210;21162;24;15;1457;22619;401;1;1457;1;732;449;1056;1;1
TMS_Ibrahim;53;4;"<?xml version=""1.0""?>\n<Clock xmlns:dt=""urn:schemas-microsoft-com:datatypes""><Description dt:dt=""string"">E-Prime Primary Realtime Clock</Description><StartTime><Timestamp dt:dt=""int"">0</Timestamp><DateUtc dt:dt=""string"">2023-04-14T08:47:13Z</DateUtc></StartTime><FrequencyChanges><FrequencyChange><Frequency dt:dt=""r8"">3312851</Frequency><Timestamp dt:dt=""r8"">34391187246</Timestamp><Current dt:dt=""r8"">0</Current><DateUtc dt:dt=""string"">2023-04-14T08:47:13Z</DateUtc></FrequencyChange></FrequencyChanges></Clock>\n";TMS_Ibrahim-53-4;75.029;1.0.0.561;1;;32107497;2.0.10.242;2.0.10.242;04-14-2023;14/04/2023 08:47;10:47:13;2.0.10.147;0;;-999999;22;15461;0;1;941;16402;1;1;1;2;1;1;1;BlockProcFischi;BlockList;1;25;0;;-999999;13;17612;0;1;932;18544;1;1;1;1;ProcFischi1;ListBlockFischi;2;1;2;0;0;3;Pr5_B;250;3;ug;3;2;30;1;2;3;1;TrialProc;2124;677;Pr5_B;48;1325;1277;ListFischi1;0;;2;205;29754;15;13;1361;31115;193;1;1361;1;920;334;1168;1;1
TMS_Ibrahim;53;4;"<?xml version=""1.0""?>\n<Clock xmlns:dt=""urn:schemas-microsoft-com:datatypes""><Description dt:dt=""string"">E-Prime Primary Realtime Clock</Description><StartTime><Timestamp dt:dt=""int"">0</Timestamp><DateUtc dt:dt=""string"">2023-04-14T08:47:13Z</DateUtc></StartTime><FrequencyChanges><FrequencyChange><Frequency dt:dt=""r8"">3312851</Frequency><Timestamp dt:dt=""r8"">34391187246</Timestamp><Current dt:dt=""r8"">0</Current><DateUtc dt:dt=""string"">2023-04-14T08:47:13Z</DateUtc></FrequencyChange></FrequencyChanges></Clock>\n";TMS_Ibrahim-53-4;75.029;1.0.0.561;1;;32107497;2.0.10.242;2.0.10.242;04-14-2023;14/04/2023 08:47;10:47:13;2.0.10.147;0;;-999999;22;15461;0;1;941;16402;1;1;1;2;1;1;1;BlockProcFischi;BlockList;1;25;0;;-999999;13;17612;0;1;932;18544;1;1;1;1;ProcFischi1;ListBlockFischi;3;0;2;0;0;5;Pr4_B;;1;op;1;2;13;1;3;1;0;TrialProc;1827;675;Pr4_B;48;1325;1247;ListFischi1;0;;2;203;37795;11;1;327;38122;327;1;1;1;776;398;-326;1;0
TMS_Ibrahim;53;4;"<?xml version=""1.0""?>\n<Clock xmlns:dt=""urn:schemas-microsoft-com:datatypes""><Description dt:dt=""string"">E-Prime Primary Realtime Clock</Description><StartTime><Timestamp dt:dt=""int"">0</Timestamp><DateUtc dt:dt=""string"">2023-04-14T08:47:13Z</DateUtc></StartTime><FrequencyChanges><FrequencyChange><Frequency dt:dt=""r8"">3312851</Frequency><Timestamp dt:dt=""r8"">34391187246</Timestamp><Current dt:dt=""r8"">0</Current><DateUtc dt:dt=""string"">2023-04-14T08:47:13Z</DateUtc></FrequencyChange></FrequencyChanges></Clock>\n";TMS_Ibrahim-53-4;75.029;1.0.0.561;1;;32107497;2.0.10.242;2.0.10.242;04-14-2023;14/04/2023 08:47;10:47:13;2.0.10.147;0;;-999999;22;15461;0;1;941;16402;1;1;1;2;1;1;1;BlockProcFischi;BlockList;1;25;0;;-999999;13;17612;0;1;932;18544;1;1;1;1;ProcFischi1;ListBlockFischi;4;1;2;0;0;3;Pr3_B;225;3;ug;3;2;23;1;4;3;1;TrialProc;2315;709;Pr3_B;52;1656;1708;ListFischi1;0;;2;203;46222;8;13;1676;47898;316;1;1676;1;744;205;1360;1;1
TMS_Ibrahim;53;4;"<?xml version=""1.0""?>\n<Clock xmlns:dt=""urn:schemas-microsoft-com:datatypes""><Description dt:dt=""string"">E-Prime Primary Realtime Clock</Description><StartTime><Timestamp dt:dt=""int"">0</Timestamp><DateUtc dt:dt=""string"">2023-04-14T08:47:13Z</DateUtc></StartTime><FrequencyChanges><FrequencyChange><Frequency dt:dt=""r8"">3312851</Frequency><Timestamp dt:dt=""r8"">34391187246</Timestamp><Current dt:dt=""r8"">0</Current><DateUtc dt:dt=""string"">2023-04-14T08:47:13Z</DateUtc></FrequencyChange></FrequencyChanges></Clock>\n";TMS_Ibrahim-53-4;75.029;1.0.0.561;1;;32107497;2.0.10.242;2.0.10.242;04-14-2023;14/04/2023 08:47;10:47:13;2.0.10.147;0;;-999999;22;15461;0;1;941;16402;1;1;1;2;1;1;1;BlockProcFischi;BlockList;1;25;0;;-999999;13;17612;0;1;932;18544;1;1;1;1;ProcFischi1;ListBlockFischi;5;1;1;0;1;5;Po5_B;250;4;ug;5;2;57;1;5;4;1;TrialProc;2789;979;Po5_B;109;1582;1473;ListFischi1;0;;2;203;54244;9;15;1606;55850;390;1;1606;1;1714;442;1216;1;1
TMS_Ibrahim;53;4;"<?xml version=""1.0""?>\n<Clock xmlns:dt=""urn:schemas-microsoft-com:datatypes""><Description dt:dt=""string"">E-Prime Primary Realtime Clock</Description><StartTime><Timestamp dt:dt=""int"">0</Timestamp><DateUtc dt:dt=""string"">2023-04-14T08:47:13Z</DateUtc></StartTime><FrequencyChanges><FrequencyChange><Frequency dt:dt=""r8"">3312851</Frequency><Timestamp dt:dt=""r8"">34391187246</Timestamp><Current dt:dt=""r8"">0</Current><DateUtc dt:dt=""string"">2023-04-14T08:47:13Z</DateUtc></FrequencyChange></FrequencyChanges></Clock>\n";TMS_Ibrahim-53-4;75.029;1.0.0.561;1;;32107497;2.0.10.242;2.0.10.242;04-14-2023;14/04/2023 08:47;10:47:13;2.0.10.147;0;;-999999;22;15461;0;1;941;16402;1;1;1;2;1;1;1;BlockProcFischi;BlockList;1;25;0;;-999999;13;17612;0;1;932;18544;1;1;1;1;ProcFischi1;ListBlockFischi;6;1;1;1;0;5;Pomod_B;225;4;ug;5;2;64;1;6;4;1;TrialProc;1932;1315;Pomod_B;421;2096;1675;ListFischi1;0;;2;203;62665;12;15;2129;64794;369;1;2129;1;472;455;1760;1;1
TMS_Ibrahim;53;4;"<?xml version=""1.0""?>\n<Clock xmlns:dt=""urn:schemas-microsoft-com:datatypes""><Description dt:dt=""string"">E-Prime Primary Realtime Clock</Description><StartTime><Timestamp dt:dt=""int"">0</Timestamp><DateUtc dt:dt=""string"">2023-04-14T08:47:13Z</DateUtc></StartTime><FrequencyChanges><FrequencyChange><Frequency dt:dt=""r8"">3312851</Frequency><Timestamp dt:dt=""r8"">34391187246</Timestamp><Current dt:dt=""r8"">0</Current><DateUtc dt:dt=""string"">2023-04-14T08:47:13Z</DateUtc></FrequencyChange></FrequencyChanges></Clock>\n";TMS_Ibrahim-53-4;75.029;1.0.0.561;1;;32107497;2.0.10.242;2.0.10.242;04-14-2023;14/04/2023 08:47;10:47:13;2.0.10.147;0;;-999999;22;15461;0;1;941;16402;1;1;1;2;1;1;1;BlockProcFischi;BlockList;1;25;0;;-999999;13;17612;0;1;932;18544;1;1;1;1;ProcFischi1;ListBlockFischi;7;1;1;0;1;5;Po8_B;225;4;ug;5;2;53;1;7;4;1;TrialProc;1909;1245;Po8_B;168;1411;1579;ListFischi1;0;;2;201;70571;9;15;1439;72010;255;1;1439;1;277;339;1184;1;1
TMS_Ibrahim;53;4;"<?xml version=""1.0""?>\n<Clock xmlns:dt=""urn:schemas-microsoft-com:datatypes""><Description dt:dt=""string"">E-Prime Primary Realtime Clock</Description><StartTime><Timestamp dt:dt=""int"">0</Timestamp><DateUtc dt:dt=""string"">2023-04-14T08:47:13Z</DateUtc></StartTime><FrequencyChanges><FrequencyChange><Frequency dt:dt=""r8"">3312851</Frequency><Timestamp dt:dt=""r8"">34391187246</Timestamp><Current dt:dt=""r8"">0</Current><DateUtc dt:dt=""string"">2023-04-14T08:47:13Z</DateUtc></FrequencyChange></FrequencyChanges></Clock>\n";TMS_Ibrahim-53-4;75.029;1.0.0.561;1;;32107497;2.0.10.242;2.0.10.242;04-14-2023;14/04/2023 08:47;10:47:13;2.0.10.147;0;;-999999;22;15461;0;1;941;16402;1;1;1;2;1;1;1;BlockProcFischi;BlockList;1;25;0;;-999999;13;17612;0;1;932;18544;1;1;1;1;ProcFischi1;ListBlockFischi;8;1;1;0;0;3;Po3_B;250;2;op;3;2;34;1;8;2;0;TrialProc;767;1312;Po3_B;318;1895;1578;ListFischi1;0;;2;203;78675;9;13;1926;80601;262;1;1926;1;753;321;1664;1;1
TMS_Ibrahim;53;4;"<?xml version=""1.0""?>\n<Clock xmlns:dt=""urn:schemas-microsoft-com:datatypes""><Description dt:dt=""string"">E-Prime Primary Realtime Clock</Description><StartTime><Timestamp dt:dt=""int"">0</Timestamp><DateUtc dt:dt=""string"">2023-04-14T08:47:13Z</DateUtc></StartTime><FrequencyChanges><FrequencyChange><Frequency dt:dt=""r8"">3312851</Frequency><Timestamp dt:dt=""r8"">34391187246</Timestamp><Current dt:dt=""r8"">0</Current><DateUtc dt:dt=""string"">2023-04-14T08:47:13Z</DateUtc></FrequencyChange></FrequencyChanges></Clock>\n";TMS_Ibrahim-53-4;75.029;1.0.0.561;1;;32107497;2.0.10.242;2.0.10.242;04-14-2023;14/04/2023 08:47;10:47:13;2.0.10.147;0;;-999999;22;15461;0;1;941;16402;1;1;1;2;1;1;1;BlockProcFischi;BlockList;1;25;0;;-999999;13;17612;0;1;932;18544;1;1;1;1;ProcFischi1;ListBlockFischi;9;0;2;0;0;3;Pr2_B;;3;ug;1;2;27;1;9;3;1;TrialProc;1476;714;Pr2_B;318;1895;1246;ListFischi1;0;;2;203;86816;11;1;233;87049;233;1;1;1;954;425;-232;1;0
TMS_Ibrahim;53;4;"<?xml version=""1.0""?>\n<Clock xmlns:dt=""urn:schemas-microsoft-com:datatypes""><Description dt:dt=""string"">E-Prime Primary Realtime Clock</Description><StartTime><Timestamp dt:dt=""int"">0</Timestamp><DateUtc dt:dt=""string"">2023-04-14T08:47:13Z</DateUtc></StartTime><FrequencyChanges><FrequencyChange><Frequency dt:dt=""r8"">3312851</Frequency><Timestamp dt:dt=""r8"">34391187246</Timestamp><Current dt:dt=""r8"">0</Current><DateUtc dt:dt=""string"">2023-04-14T08:47:13Z</DateUtc></FrequencyChange></FrequencyChanges></Clock>\n";TMS_Ibrahim-53-4;75.029;1.0.0.561;1;;32107497;2.0.10.242;2.0.10.242;04-14-2023;14/04/2023 08:47;10:47:13;2.0.10.147;0;;-999999;22;15461;0;1;941;16402;1;1;1;2;1;1;1;BlockProcFischi;BlockList;1;25;0;;-999999;13;17612;0;1;932;18544;1;1;1;1;ProcFischi1;ListBlockFischi;10;1;1;0;0;5;Po3_B;200;4;ug;5;2;50;1;10;4;1;TrialProc;1183;1312;Po3_B;261;1317;1578;ListFischi1;0;;3;203;96201;10;15;1344;97545;320;1;1344;1;1072;507;1024;1;1
TMS_Ibrahim;53;4;"<?xml version=""1.0""?>\n<Clock xmlns:dt=""urn:schemas-microsoft-com:datatypes""><Description dt:dt=""string"">E-Prime Primary Realtime Clock</Description><StartTime><Timestamp dt:dt=""int"">0</Timestamp><DateUtc dt:dt=""string"">2023-04-14T08:47:13Z</DateUtc></StartTime><FrequencyChanges><FrequencyChange><Frequency dt:dt=""r8"">3312851</Frequency><Timestamp dt:dt=""r8"">34391187246</Timestamp><Current dt:dt=""r8"">0</Current><DateUtc dt:dt=""string"">2023-04-14T08:47:13Z</DateUtc></FrequencyChange></FrequencyChanges></Clock>\n";TMS_Ibrahim-53-4;75.029;1.0.0.561;1;;32107497;2.0.10.242;2.0.10.242;04-14-2023;14/04/2023 08:47;10:47:13;2.0.10.147;0;;-999999;22;15461;0;1;941;16402;1;1;1;2;1;1;1;BlockProcFischi;BlockList;1;25;0;;-999999;13;17612;0;1;932;18544;1;1;1;1;ProcFischi1;ListBlockFischi;11;1;2;1;0;5;Prmod_B;250;1;op;5;2;16;1;11;1;0;TrialProc;4349;1319;Prmod_B;44;1697;1652;ListFischi1;0;;2;203;104471;16;15;1730;106201;178;1;1730;1;619;365;1552;1;1
TMS_Ibrahim;53;4;"<?xml version=""1.0""?>\n<Clock xmlns:dt=""urn:schemas-microsoft-com:datatypes""><Description dt:dt=""string"">E-Prime Primary Realtime Clock</Description><StartTime><Timestamp dt:dt=""int"">0</Timestamp><DateUtc dt:dt=""string"">2023-04-14T08:47:13Z</DateUtc></StartTime><FrequencyChanges><FrequencyChange><Frequency dt:dt=""r8"">3312851</Frequency><Timestamp dt:dt=""r8"">34391187246</Timestamp><Current dt:dt=""r8"">0</Current><DateUtc dt:dt=""string"">2023-04-14T08:47:13Z</DateUtc></FrequencyChange></FrequencyChanges></Clock>\n";TMS_Ibrahim-53-4;75.029;1.0.0.561;1;;32107497;2.0.10.242;2.0.10.242;04-14-2023;14/04/2023 08:47;10:47:13;2.0.10.147;0;;-999999;22;15461;0;1;941;16402;1;1;1;2;1;1;1;BlockProcFischi;BlockList;1;25;0;;-999999;13;17612;0;1;932;18544;1;1;1;1;ProcFischi1;ListBlockFischi;12;1;1;0;1;5;Po4_B;200;4;ug;5;2;51;1;12;4;1;TrialProc;2063;1341;Po4_B;200;1514;1713;ListFischi1;0;;2;203;113338;13;15;1534;114872;78;1;1534;1;896;525;1456;1;1
TMS_Ibrahim;53;4;"<?xml version=""1.0""?>\n<Clock xmlns:dt=""urn:schemas-microsoft-com:datatypes""><Description dt:dt=""string"">E-Prime Primary Realtime Clock</Description><StartTime><Timestamp dt:dt=""int"">0</Timestamp><DateUtc dt:dt=""string"">2023-04-14T08:47:13Z</DateUtc></StartTime><FrequencyChanges><FrequencyChange><Frequency dt:dt=""r8"">3312851</Frequency><Timestamp dt:dt=""r8"">34391187246</Timestamp><Current dt:dt=""r8"">0</Current><DateUtc dt:dt=""string"">2023-04-14T08:47:13Z</DateUtc></FrequencyChange></FrequencyChanges></Clock>\n";TMS_Ibrahim-53-4;75.029;1.0.0.561;1;;32107497;2.0.10.242;2.0.10.242;04-14-2023;14/04/2023 08:47;10:47:13;2.0.10.147;0;;-999999;22;15461;0;1;941;16402;1;1;1;2;1;1;1;BlockProcFischi;BlockList;1;25;0;;-999999;13;17612;0;1;932;18544;1;1;1;1;ProcFischi1;ListBlockFischi;13;1;1;0;1;5;Po3_B;200;4;ug;5;2;60;1;13;4;1;TrialProc;2469;1318;Po3_B;270;1855;1585;ListFischi1;0;;2;201;120693;15;15;1875;122568;259;1;1875;1;1723;294;1616;1;1
TMS_Ibrahim;53;4;"<?xml version=""1.0""?>\n<Clock xmlns:dt=""urn:schemas-microsoft-com:datatypes""><Description dt:dt=""string"">E-Prime Primary Realtime Clock</Description><StartTime><Timestamp dt:dt=""int"">0</Timestamp><DateUtc dt:dt=""string"">2023-04-14T08:47:13Z</DateUtc></StartTime><FrequencyChanges><FrequencyChange><Frequency dt:dt=""r8"">3312851</Frequency><Timestamp dt:dt=""r8"">34391187246</Timestamp><Current dt:dt=""r8"">0</Current><DateUtc dt:dt=""string"">2023-04-14T08:47:13Z</DateUtc></FrequencyChange></FrequencyChanges></Clock>\n";TMS_Ibrahim-53-4;75.029;1.0.0.561;1;;32107497;2.0.10.242;2.0.10.242;04-14-2023;14/04/2023 08:47;10:47:13;2.0.10.147;0;;-999999;22;15461;0;1;941;16402;1;1;1;2;1;1;1;BlockProcFischi;BlockList;1;25;0;;-999999;13;17612;0;1;932;18544;1;1;1;1;ProcFischi1;ListBlockFischi;14;1;2;0;0;5;Pr8_B;225;1;op;5;2;10;1;14;1;0;TrialProc;1415;717;Pr8_B;44;1699;1742;ListFischi1;0;;2;203;129117;14;15;1723;130840;491;1;1723;1;1664;301;1232;1;1
TMS_Ibrahim;53;4;"<?xml version=""1.0""?>\n<Clock xmlns:dt=""urn:schemas-microsoft-com:datatypes""><Description dt:dt=""string"">E-Prime Primary Realtime Clock</Description><StartTime><Timestamp dt:dt=""int"">0</Timestamp><DateUtc dt:dt=""string"">2023-04-14T08:47:13Z</DateUtc></StartTime><FrequencyChanges><FrequencyChange><Frequency dt:dt=""r8"">3312851</Frequency><Timestamp dt:dt=""r8"">34391187246</Timestamp><Current dt:dt=""r8"">0</Current><DateUtc dt:dt=""string"">2023-04-14T08:47:13Z</DateUtc></FrequencyChange></FrequencyChanges></Clock>\n";TMS_Ibrahim-53-4;75.029;1.0.0.561;1;;32107497;2.0.10.242;2.0.10.242;04-14-2023;14/04/2023 08:47;10:47:13;2.0.10.147;0;;-999999;22;15461;0;1;941;16402;1;1;1;2;1;1;1;BlockProcFischi;BlockList;1;25;0;;-999999;13;17612;0;1;932;18544;1;1;1;1;ProcFischi1;ListBlockFischi;15;1;2;0;0;5;Pr3_B;200;1;op;5;2;7;1;15;1;0;TrialProc;1723;712;Pr3_B;26;1685;1711;ListFischi1;0;;2;203;137985;10;151;4791;142776;199;1;1719;1;2563;392;1520;1;1
TMS_Ibrahim;53;4;"<?xml version=""1.0""?>\n<Clock xmlns:dt=""urn:schemas-microsoft-com:datatypes""><Description dt:dt=""string"">E-Prime Primary Realtime Clock</Description><StartTime><Timestamp dt:dt=""int"">0</Timestamp><DateUtc dt:dt=""string"">2023-04-14T08:47:13Z</DateUtc></StartTime><FrequencyChanges><FrequencyChange><Frequency dt:dt=""r8"">3312851</Frequency><Timestamp dt:dt=""r8"">34391187246</Timestamp><Current dt:dt=""r8"">0</Current><DateUtc dt:dt=""string"">2023-04-14T08:47:13Z</DateUtc></FrequencyChange></FrequencyChanges></Clock>\n";TMS_Ibrahim-53-4;75.029;1.0.0.561;1;;32107497;2.0.10.242;2.0.10.242;04-14-2023;14/04/2023 08:47;10:47:13;2.0.10.147;0;;-999999;22;15461;0;1;941;16402;1;1;1;2;1;1;1;BlockProcFischi;BlockList;1;25;0;;-999999;13;17612;0;1;932;18544;1;1;1;1;ProcFischi1;ListBlockFischi;16;1;1;0;2;5;Po5_B;200;4;ug;5;2;62;1;16;4;1;TrialProc;3362;979;Po5_B;60;1412;1472;ListFischi1;0;;2;203;148262;9;15;1442;149704;306;1;1442;1;1601;458;1136;1;1
TMS_Ibrahim;53;4;"<?xml version=""1.0""?>\n<Clock xmlns:dt=""urn:schemas-microsoft-com:datatypes""><Description dt:dt=""string"">E-Prime Primary Realtime Clock</Description><StartTime><Timestamp dt:dt=""int"">0</Timestamp><DateUtc dt:dt=""string"">2023-04-14T08:47:13Z</DateUtc></StartTime><FrequencyChanges><FrequencyChange><Frequency dt:dt=""r8"">3312851</Frequency><Timestamp dt:dt=""r8"">34391187246</Timestamp><Current dt:dt=""r8"">0</Current><DateUtc dt:dt=""string"">2023-04-14T08:47:13Z</DateUtc></FrequencyChange></FrequencyChanges></Clock>\n";TMS_Ibrahim-53-4;75.029;1.0.0.561;1;;32107497;2.0.10.242;2.0.10.242;04-14-2023;14/04/2023 08:47;10:47:13;2.0.10.147;0;;-999999;22;15461;0;1;941;16402;1;1;1;2;1;1;1;BlockProcFischi;BlockList;1;25;0;;-999999;13;17612;0;1;932;18544;1;1;1;1;ProcFischi1;ListBlockFischi;17;1;2;0;0;3;Pr3_B;200;3;ug;3;2;18;1;17;3;1;TrialProc;619;715;Pr3_B;80;1634;1714;ListFischi1;0;;2;203;156735;12;13;1656;158391;328;1;1656;1;2549;208;1328;1;1
TMS_Ibrahim;53;4;"<?xml version=""1.0""?>\n<Clock xmlns:dt=""urn:schemas-microsoft-com:datatypes""><Description dt:dt=""string"">E-Prime Primary Realtime Clock</Description><StartTime><Timestamp dt:dt=""int"">0</Timestamp><DateUtc dt:dt=""string"">2023-04-14T08:47:13Z</DateUtc></StartTime><FrequencyChanges><FrequencyChange><Frequency dt:dt=""r8"">3312851</Frequency><Timestamp dt:dt=""r8"">34391187246</Timestamp><Current dt:dt=""r8"">0</Current><DateUtc dt:dt=""string"">2023-04-14T08:47:13Z</DateUtc></FrequencyChange></FrequencyChanges></Clock>\n";TMS_Ibrahim-53-4;75.029;1.0.0.561;1;;32107497;2.0.10.242;2.0.10.242;04-14-2023;14/04/2023 08:47;10:47:13;2.0.10.147;0;;-999999;22;15461;0;1;941;16402;1;1;1;2;1;1;1;BlockProcFischi;BlockList;1;25;0;;-999999;13;17612;0;1;932;18544;1;1;1;1;ProcFischi1;ListBlockFischi;18;1;1;1;0;5;Pomod_B;175;4;ug;5;2;63;1;18;4;1;TrialProc;1218;1310;Pomod_B;152;1823;1670;ListFischi1;0;;2;203;165016;8;15;1855;166871;335;1;1855;1;365;567;1520;1;1
TMS_Ibrahim;53;4;"<?xml version=""1.0""?>\n<Clock xmlns:dt=""urn:schemas-microsoft-com:datatypes""><Description dt:dt=""string"">E-Prime Primary Realtime Clock</Description><StartTime><Timestamp dt:dt=""int"">0</Timestamp><DateUtc dt:dt=""string"">2023-04-14T08:47:13Z</DateUtc></StartTime><FrequencyChanges><FrequencyChange><Frequency dt:dt=""r8"">3312851</Frequency><Timestamp dt:dt=""r8"">34391187246</Timestamp><Current dt:dt=""r8"">0</Current><DateUtc dt:dt=""string"">2023-04-14T08:47:13Z</DateUtc></FrequencyChange></FrequencyChanges></Clock>\n";TMS_Ibrahim-53-4;75.029;1.0.0.561;1;;32107497;2.0.10.242;2.0.10.242;04-14-2023;14/04/2023 08:47;10:47:13;2.0.10.147;0;;-999999;22;15461;0;1;941;16402;1;1;1;2;1;1;1;BlockProcFischi;BlockList;1;25;0;;-999999;13;17612;0;1;932;18544;1;1;1;1;ProcFischi1;ListBlockFischi;19;1;2;0;0;3;Pr5_B;175;3;ug;3;2;20;1;19;3;1;TrialProc;1085;671;Pr5_B;83;1355;1272;ListFischi1;0;;2;203;172946;9;13;1381;174327;133;1;1381;1;387;203;1248;1;1
TMS_Ibrahim;53;4;"<?xml version=""1.0""?>\n<Clock xmlns:dt=""urn:schemas-microsoft-com:datatypes""><Description dt:dt=""string"">E-Prime Primary Realtime Clock</Description><StartTime><Timestamp dt:dt=""int"">0</Timestamp><DateUtc dt:dt=""string"">2023-04-14T08:47:13Z</DateUtc></StartTime><FrequencyChanges><FrequencyChange><Frequency dt:dt=""r8"">3312851</Frequency><Timestamp dt:dt=""r8"">34391187246</Timestamp><Current dt:dt=""r8"">0</Current><DateUtc dt:dt=""string"">2023-04-14T08:47:13Z</DateUtc></FrequencyChange></FrequencyChanges></Clock>\n";TMS_Ibrahim-53-4;75.029;1.0.0.561;1;;32107497;2.0.10.242;2.0.10.242;04-14-2023;14/04/2023 08:47;10:47:13;2.0.10.147;0;;-999999;22;15461;0;1;941;16402;1;1;1;2;1;1;1;BlockProcFischi;BlockList;1;25;0;;-999999;13;17612;0;1;932;18544;1;1;1;1;ProcFischi1;ListBlockFischi;20;1;1;0;0;5;Po2_B;175;4;ug;5;2;59;1;20;4;1;TrialProc;801;1575;Po2_B;23;1825;1802;ListFischi1;0;;2;203;181384;7;15;1855;183239;351;1;1855;1;361;203;1504;1;1
TMS_Ibrahim;53;4;"<?xml version=""1.0""?>\n<Clock xmlns:dt=""urn:schemas-microsoft-com:datatypes""><Description dt:dt=""string"">E-Prime Primary Realtime Clock</Description><StartTime><Timestamp dt:dt=""int"">0</Timestamp><DateUtc dt:dt=""string"">2023-04-14T08:47:13Z</DateUtc></StartTime><FrequencyChanges><FrequencyChange><Frequency dt:dt=""r8"">3312851</Frequency><Timestamp dt:dt=""r8"">34391187246</Timestamp><Current dt:dt=""r8"">0</Current><DateUtc dt:dt=""string"">2023-04-14T08:47:13Z</DateUtc></FrequencyChange></FrequencyChanges></Clock>\n";TMS_Ibrahim-53-4;75.029;1.0.0.561;1;;32107497;2.0.10.242;2.0.10.242;04-14-2023;14/04/2023 08:47;10:47:13;2.0.10.147;0;;-999999;22;15461;0;1;941;16402;1;1;1;2;1;1;1;BlockProcFischi;BlockList;1;25;0;;-999999;13;17612;0;1;932;18544;1;1;1;1;ProcFischi1;ListBlockFischi;21;0;1;0;1;3;Po2_B;;2;op;1;2;43;1;21;2;0;TrialProc;1434;1577;Po2_B;23;1825;1803;ListFischi1;0;;2;203;190153;8;1;397;190550;397;1;1;1;820;584;-396;1;0
TMS_Ibrahim;53;4;"<?xml version=""1.0""?>\n<Clock xmlns:dt=""urn:schemas-microsoft-com:datatypes""><Description dt:dt=""string"">E-Prime Primary Realtime Clock</Description><StartTime><Timestamp dt:dt=""int"">0</Timestamp><DateUtc dt:dt=""string"">2023-04-14T08:47:13Z</DateUtc></StartTime><FrequencyChanges><FrequencyChange><Frequency dt:dt=""r8"">3312851</Frequency><Timestamp dt:dt=""r8"">34391187246</Timestamp><Current dt:dt=""r8"">0</Current><DateUtc dt:dt=""string"">2023-04-14T08:47:13Z</DateUtc></FrequencyChange></FrequencyChanges></Clock>\n";TMS_Ibrahim-53-4;75.029;1.0.0.561;1;;32107497;2.0.10.242;2.0.10.242;04-14-2023;14/04/2023 08:47;10:47:13;2.0.10.147;0;;-999999;22;15461;0;1;941;16402;1;1;1;2;1;1;1;BlockProcFischi;BlockList;1;25;0;;-999999;13;17612;0;1;932;18544;1;1;1;1;ProcFischi1;ListBlockFischi;22;1;2;0;0;5;Pr3_B;175;1;op;5;2;2;1;22;1;0;TrialProc;1637;713;Pr3_B;172;1885;1713;ListFischi1;0;;2;203;199573;11;15;1905;201478;369;1;1905;1;867;275;1536;1;1
TMS_Ibrahim;53;4;"<?xml version=""1.0""?>\n<Clock xmlns:dt=""urn:schemas-microsoft-com:datatypes""><Description dt:dt=""string"">E-Prime Primary Realtime Clock</Description><StartTime><Timestamp dt:dt=""int"">0</Timestamp><DateUtc dt:dt=""string"">2023-04-14T08:47:13Z</DateUtc></StartTime><FrequencyChanges><FrequencyChange><Frequency dt:dt=""r8"">3312851</Frequency><Timestamp dt:dt=""r8"">34391187246</Timestamp><Current dt:dt=""r8"">0</Current><DateUtc dt:dt=""string"">2023-04-14T08:47:13Z</DateUtc></FrequencyChange></FrequencyChanges></Clock>\n";TMS_Ibrahim-53-4;75.029;1.0.0.561;1;;32107497;2.0.10.242;2.0.10.242;04-14-2023;14/04/2023 08:47;10:47:13;2.0.10.147;0;;-999999;22;15461;0;1;941;16402;1;1;1;2;1;1;1;BlockProcFischi;BlockList;1;25;0;;-999999;13;17612;0;1;932;18544;1;1;1;1;ProcFischi1;ListBlockFischi;23;1;2;0;0;5;Pr5_B;175;1;op;5;2;9;1;23;1;0;TrialProc;3038;679;Pr5_B;107;1387;1279;ListFischi1;0;;3;203;208070;18;15;1408;209478;304;1;1408;1;823;248;1104;1;1
TMS_Ibrahim;53;4;"<?xml version=""1.0""?>\n<Clock xmlns:dt=""urn:schemas-microsoft-com:datatypes""><Description dt:dt=""string"">E-Prime Primary Realtime Clock</Description><StartTime><Timestamp dt:dt=""int"">0</Timestamp><DateUtc dt:dt=""string"">2023-04-14T08:47:13Z</DateUtc></StartTime><FrequencyChanges><FrequencyChange><Frequency dt:dt=""r8"">3312851</Frequency><Timestamp dt:dt=""r8"">34391187246</Timestamp><Current dt:dt=""r8"">0</Current><DateUtc dt:dt=""string"">2023-04-14T08:47:13Z</DateUtc></FrequencyChange></FrequencyChanges></Clock>\n";TMS_Ibrahim-53-4;75.029;1.0.0.561;1;;32107497;2.0.10.242;2.0.10.242;04-14-2023;14/04/2023 08:47;10:47:13;2.0.10.147;0;;-999999;22;15461;0;1;941;16402;1;1;1;2;1;1;1;BlockProcFischi;BlockList;1;25;0;;-999999;13;17612;0;1;932;18544;1;1;1;1;ProcFischi1;ListBlockFischi;24;1;1;0;1;3;Po8_B;250;2;op;3;2;37;1;24;2;0;TrialProc;1352;1245;Po8_B;196;1384;1580;ListFischi1;0;;2;203;216046;12;13;1416;217462;264;1;1416;1;203;493;1152;1;1
TMS_Ibrahim;53;4;"<?xml version=""1.0""?>\n<Clock xmlns:dt=""urn:schemas-microsoft-com:datatypes""><Description dt:dt=""string"">E-Prime Primary Realtime Clock</Description><StartTime><Timestamp dt:dt=""int"">0</Timestamp><DateUtc dt:dt=""string"">2023-04-14T08:47:13Z</DateUtc></StartTime><FrequencyChanges><FrequencyChange><Frequency dt:dt=""r8"">3312851</Frequency><Timestamp dt:dt=""r8"">34391187246</Timestamp><Current dt:dt=""r8"">0</Current><DateUtc dt:dt=""string"">2023-04-14T08:47:13Z</DateUtc></FrequencyChange></FrequencyChanges></Clock>\n";TMS_Ibrahim-53-4;75.029;1.0.0.561;1;;32107497;2.0.10.242;2.0.10.242;04-14-2023;14/04/2023 08:47;10:47:13;2.0.10.147;0;;-999999;22;15461;0;1;941;16402;1;1;1;2;1;1;1;BlockProcFischi;BlockList;1;25;0;;-999999;13;17612;0;1;932;18544;1;1;1;1;ProcFischi1;ListBlockFischi;25;1;1;0;0;3;Po5_B;225;2;op;3;2;41;1;25;2;0;TrialProc;786;978;Po5_B;158;1313;1471;ListFischi1;0;;2;203;223980;8;13;1338;225318;234;1;1338;1;1028;436;1104;1;1
TMS_Ibrahim;53;4;"<?xml version=""1.0""?>\n<Clock xmlns:dt=""urn:schemas-microsoft-com:datatypes""><Description dt:dt=""string"">E-Prime Primary Realtime Clock</Description><StartTime><Timestamp dt:dt=""int"">0</Timestamp><DateUtc dt:dt=""string"">2023-04-14T08:47:13Z</DateUtc></StartTime><FrequencyChanges><FrequencyChange><Frequency dt:dt=""r8"">3312851</Frequency><Timestamp dt:dt=""r8"">34391187246</Timestamp><Current dt:dt=""r8"">0</Current><DateUtc dt:dt=""string"">2023-04-14T08:47:13Z</DateUtc></FrequencyChange></FrequencyChanges></Clock>\n";TMS_Ibrahim-53-4;75.029;1.0.0.561;1;;32107497;2.0.10.242;2.0.10.242;04-14-2023;14/04/2023 08:47;10:47:13;2.0.10.147;0;;-999999;22;15461;0;1;941;16402;1;1;1;2;1;1;1;BlockProcFischi;BlockList;1;25;0;;-999999;13;17612;0;1;932;18544;1;1;1;1;ProcFischi1;ListBlockFischi;26;1;2;1;0;3;Prmod_B;150;3;ug;3;2;31;1;26;3;1;TrialProc;994;1311;Prmod_B;345;1989;1644;ListFischi1;0;;2;203;232896;9;13;2021;234917;197;1;2021;1;989;262;1824;1;1
TMS_Ibrahim;53;4;"<?xml version=""1.0""?>\n<Clock xmlns:dt=""urn:schemas-microsoft-com:datatypes""><Description dt:dt=""string"">E-Prime Primary Realtime Clock</Description><StartTime><Timestamp dt:dt=""int"">0</Timestamp><DateUtc dt:dt=""string"">2023-04-14T08:47:13Z</DateUtc></StartTime><FrequencyChanges><FrequencyChange><Frequency dt:dt=""r8"">3312851</Frequency><Timestamp dt:dt=""r8"">34391187246</Timestamp><Current dt:dt=""r8"">0</Current><DateUtc dt:dt=""string"">2023-04-14T08:47:13Z</DateUtc></FrequencyChange></FrequencyChanges></Clock>\n";TMS_Ibrahim-53-4;75.029;1.0.0.561;1;;32107497;2.0.10.242;2.0.10.242;04-14-2023;14/04/2023 08:47;10:47:13;2.0.10.147;0;;-999999;22;15461;0;1;941;16402;1;1;1;2;1;1;1;BlockProcFischi;BlockList;1;25;0;;-999999;13;17612;0;1;932;18544;1;1;1;1;ProcFischi1;ListBlockFischi;27;1;1;0;0;3;Po3_B;200;2;op;3;2;39;1;27;2;0;TrialProc;1507;1312;Po3_B;131;1449;1579;ListFischi1;0;;2;203;240759;9;13;1470;242229;254;1;1470;1;670;494;1216;1;1
TMS_Ibrahim;53;4;"<?xml version=""1.0""?>\n<Clock xmlns:dt=""urn:schemas-microsoft-com:datatypes""><Description dt:dt=""string"">E-Prime Primary Realtime Clock</Description><StartTime><Timestamp dt:dt=""int"">0</Timestamp><DateUtc dt:dt=""string"">2023-04-14T08:47:13Z</DateUtc></StartTime><FrequencyChanges><FrequencyChange><Frequency dt:dt=""r8"">3312851</Frequency><Timestamp dt:dt=""r8"">34391187246</Timestamp><Current dt:dt=""r8"">0</Current><DateUtc dt:dt=""string"">2023-04-14T08:47:13Z</DateUtc></FrequencyChange></FrequencyChanges></Clock>\n";TMS_Ibrahim-53-4;75.029;1.0.0.561;1;;32107497;2.0.10.242;2.0.10.242;04-14-2023;14/04/2023 08:47;10:47:13;2.0.10.147;0;;-999999;22;15461;0;1;941;16402;1;1;1;2;1;1;1;BlockProcFischi;BlockList;1;25;0;;-999999;13;17612;0;1;932;18544;1;1;1;1;ProcFischi1;ListBlockFischi;28;1;2;0;0;5;Pr4_B;150;1;op;5;2;3;1;28;1;0;TrialProc;2689;674;Pr4_B;93;1340;1247;ListFischi1;0;;2;203;248820;12;15;1361;250181;273;1;1361;1;673;346;1088;1;1
TMS_Ibrahim;53;4;"<?xml version=""1.0""?>\n<Clock xmlns:dt=""urn:schemas-microsoft-com:datatypes""><Description dt:dt=""string"">E-Prime Primary Realtime Clock</Description><StartTime><Timestamp dt:dt=""int"">0</Timestamp><DateUtc dt:dt=""string"">2023-04-14T08:47:13Z</DateUtc></StartTime><FrequencyChanges><FrequencyChange><Frequency dt:dt=""r8"">3312851</Frequency><Timestamp dt:dt=""r8"">34391187246</Timestamp><Current dt:dt=""r8"">0</Current><DateUtc dt:dt=""string"">2023-04-14T08:47:13Z</DateUtc></FrequencyChange></FrequencyChanges></Clock>\n";TMS_Ibrahim-53-4;75.029;1.0.0.561;1;;32107497;2.0.10.242;2.0.10.242;04-14-2023;14/04/2023 08:47;10:47:13;2.0.10.147;0;;-999999;22;15461;0;1;941;16402;1;1;1;2;1;1;1;BlockProcFischi;BlockList;1;25;0;;-999999;13;17612;0;1;932;18544;1;1;1;1;ProcFischi1;ListBlockFischi;29;1;1;0;0;3;Po8_B;175;2;op;3;2;42;1;29;2;0;TrialProc;2509;1248;Po8_B;130;1713;1582;ListFischi1;0;;3;201;255856;13;13;1749;257605;149;1;1749;1;761;337;1600;1;1
TMS_Ibrahim;53;4;"<?xml version=""1.0""?>\n<Clock xmlns:dt=""urn:schemas-microsoft-com:datatypes""><Description dt:dt=""string"">E-Prime Primary Realtime Clock</Description><StartTime><Timestamp dt:dt=""int"">0</Timestamp><DateUtc dt:dt=""string"">2023-04-14T08:47:13Z</DateUtc></StartTime><FrequencyChanges><FrequencyChange><Frequency dt:dt=""r8"">3312851</Frequency><Timestamp dt:dt=""r8"">34391187246</Timestamp><Current dt:dt=""r8"">0</Current><DateUtc dt:dt=""string"">2023-04-14T08:47:13Z</DateUtc></FrequencyChange></FrequencyChanges></Clock>\n";TMS_Ibrahim-53-4;75.029;1.0.0.561;1;;32107497;2.0.10.242;2.0.10.242;04-14-2023;14/04/2023 08:47;10:47:13;2.0.10.147;0;;-999999;22;15461;0;1;941;16402;1;1;1;2;1;1;1;BlockProcFischi;BlockList;1;25;0;;-999999;13;17612;0;1;932;18544;1;1;1;1;ProcFischi1;ListBlockFischi;30;1;1;0;0;3;Po4_B;150;2;op;3;2;35;1;30;2;0;TrialProc;902;1340;Po4_B;275;1438;1712;ListFischi1;0;;2;203;263843;10;13;1473;265316;370;1;1473;1;560;302;1103;1;1
TMS_Ibrahim;53;4;"<?xml version=""1.0""?>\n<Clock xmlns:dt=""urn:schemas-microsoft-com:datatypes""><Description dt:dt=""string"">E-Prime Primary Realtime Clock</Description><StartTime><Timestamp dt:dt=""int"">0</Timestamp><DateUtc dt:dt=""string"">2023-04-14T08:47:13Z</DateUtc></StartTime><FrequencyChanges><FrequencyChange><Frequency dt:dt=""r8"">3312851</Frequency><Timestamp dt:dt=""r8"">34391187246</Timestamp><Current dt:dt=""r8"">0</Current><DateUtc dt:dt=""string"">2023-04-14T08:47:13Z</DateUtc></FrequencyChange></FrequencyChanges></Clock>\n";TMS_Ibrahim-53-4;75.029;1.0.0.561;1;;32107497;2.0.10.242;2.0.10.242;04-14-2023;14/04/2023 08:47;10:47:13;2.0.10.147;0;;-999999;22;15461;0;1;941;16402;1;1;1;2;1;1;1;BlockProcFischi;BlockList;1;25;0;;-999999;13;17612;0;1;932;18544;1;1;1;1;ProcFischi1;ListBlockFischi;31;1;2;0;1;3;Pr4_B;150;3;ug;3;2;19;1;31;3;1;TrialProc;2920;674;Pr4_B;121;1368;1246;ListFischi1;0;;2;203;272573;10;13;1399;273972;503;1;1399;1;1137;367;896;1;1
TMS_Ibrahim;53;4;"<?xml version=""1.0""?>\n<Clock xmlns:dt=""urn:schemas-microsoft-com:datatypes""><Description dt:dt=""string"">E-Prime Primary Realtime Clock</Description><StartTime><Timestamp dt:dt=""int"">0</Timestamp><DateUtc dt:dt=""string"">2023-04-14T08:47:13Z</DateUtc></StartTime><FrequencyChanges><FrequencyChange><Frequency dt:dt=""r8"">3312851</Frequency><Timestamp dt:dt=""r8"">34391187246</Timestamp><Current dt:dt=""r8"">0</Current><DateUtc dt:dt=""string"">2023-04-14T08:47:13Z</DateUtc></FrequencyChange></FrequencyChanges></Clock>\n";TMS_Ibrahim-53-4;75.029;1.0.0.561;1;;32107497;2.0.10.242;2.0.10.242;04-14-2023;14/04/2023 08:47;10:47:13;2.0.10.147;0;;-999999;22;15461;0;1;941;16402;1;1;1;2;1;1;1;BlockProcFischi;BlockList;1;25;0;;-999999;13;17612;0;1;932;18544;1;1;1;1;ProcFischi1;ListBlockFischi;32;1;1;0;0;5;Po2_B;150;4;ug;5;2;54;1;32;4;1;TrialProc;1766;1578;Po2_B;117;1688;1804;ListFischi1;0;;2;203;281278;8;115;1718;282996;230;1;1718;1;928;237;1488;1;1
TMS_Ibrahim;53;4;"<?xml version=""1.0""?>\n<Clock xmlns:dt=""urn:schemas-microsoft-com:datatypes""><Description dt:dt=""string"">E-Prime Primary Realtime Clock</Description><StartTime><Timestamp dt:dt=""int"">0</Timestamp><DateUtc dt:dt=""string"">2023-04-14T08:47:13Z</DateUtc></StartTime><FrequencyChanges><FrequencyChange><Frequency dt:dt=""r8"">3312851</Frequency><Timestamp dt:dt=""r8"">34391187246</Timestamp><Current dt:dt=""r8"">0</Current><DateUtc dt:dt=""string"">2023-04-14T08:47:13Z</DateUtc></FrequencyChange></FrequencyChanges></Clock>\n";TMS_Ibrahim-53-4;75.029;1.0.0.561;1;;32107497;2.0.10.242;2.0.10.242;04-14-2023;14/04/2023 08:47;10:47:13;2.0.10.147;0;;-999999;22;15461;0;1;941;16402;1;1;1;2;1;1;1;BlockProcFischi;BlockList;1;25;0;;-999999;13;17612;0;1;932;18544;1;1;1;1;ProcFischi1;ListBlockFischi;33;1;1;0;0;5;Po8_B;125;4;ug;5;2;58;1;33;4;1;TrialProc;1779;1244;Po8_B;51;1526;1577;ListFischi1;0;;2;203;290662;7;15;1550;292212;238;1;1550;1;423;556;1312;1;1
TMS_Ibrahim;53;4;"<?xml version=""1.0""?>\n<Clock xmlns:dt=""urn:schemas-microsoft-com:datatypes""><Description dt:dt=""string"">E-Prime Primary Realtime Clock</Description><StartTime><Timestamp dt:dt=""int"">0</Timestamp><DateUtc dt:dt=""string"">2023-04-14T08:47:13Z</DateUtc></StartTime><FrequencyChanges><FrequencyChange><Frequency dt:dt=""r8"">3312851</Frequency><Timestamp dt:dt=""r8"">34391187246</Timestamp><Current dt:dt=""r8"">0</Current><DateUtc dt:dt=""string"">2023-04-14T08:47:13Z</DateUtc></FrequencyChange></FrequencyChanges></Clock>\n";TMS_Ibrahim-53-4;75.029;1.0.0.561;1;;32107497;2.0.10.242;2.0.10.242;04-14-2023;14/04/2023 08:47;10:47:13;2.0.10.147;0;;-999999;22;15461;0;1;941;16402;1;1;1;2;1;1;1;BlockProcFischi;BlockList;1;25;0;;-999999;13;17612;0;1;932;18544;1;1;1;1;ProcFischi1;ListBlockFischi;34;1;2;0;0;3;Pr8_B;125;3;ug;3;2;21;1;34;3;1;TrialProc;1388;713;Pr8_B;23;1717;1740;ListFischi1;0;;2;201;297923;10;13;1745;299668;225;1;1745;1;841;288;1520;1;1
TMS_Ibrahim;53;4;"<?xml version=""1.0""?>\n<Clock xmlns:dt=""urn:schemas-microsoft-com:datatypes""><Description dt:dt=""string"">E-Prime Primary Realtime Clock</Description><StartTime><Timestamp dt:dt=""int"">0</Timestamp><DateUtc dt:dt=""string"">2023-04-14T08:47:13Z</DateUtc></StartTime><FrequencyChanges><FrequencyChange><Frequency dt:dt=""r8"">3312851</Frequency><Timestamp dt:dt=""r8"">34391187246</Timestamp><Current dt:dt=""r8"">0</Current><DateUtc dt:dt=""string"">2023-04-14T08:47:13Z</DateUtc></FrequencyChange></FrequencyChanges></Clock>\n";TMS_Ibrahim-53-4;75.029;1.0.0.561;1;;32107497;2.0.10.242;2.0.10.242;04-14-2023;14/04/2023 08:47;10:47:13;2.0.10.147;0;;-999999;22;15461;0;1;941;16402;1;1;1;2;1;1;1;BlockProcFischi;BlockList;1;25;0;;-999999;13;17612;0;1;932;18544;1;1;1;1;ProcFischi1;ListBlockFischi;35;1;1;0;0;5;Po3_B;100;4;ug;5;2;55;1;35;4;1;TrialProc;1178;1309;Po3_B;31;1607;1577;ListFischi1;0;;2;203;306216;7;15;1643;307859;219;1;1643;1;634;264;1424;1;1
TMS_Ibrahim;53;4;"<?xml version=""1.0""?>\n<Clock xmlns:dt=""urn:schemas-microsoft-com:datatypes""><Description dt:dt=""string"">E-Prime Primary Realtime Clock</Description><StartTime><Timestamp dt:dt=""int"">0</Timestamp><DateUtc dt:dt=""string"">2023-04-14T08:47:13Z</DateUtc></StartTime><FrequencyChanges><FrequencyChange><Frequency dt:dt=""r8"">3312851</Frequency><Timestamp dt:dt=""r8"">34391187246</Timestamp><Current dt:dt=""r8"">0</Current><DateUtc dt:dt=""string"">2023-04-14T08:47:13Z</DateUtc></FrequencyChange></FrequencyChanges></Clock>\n";TMS_Ibrahim-53-4;75.029;1.0.0.561;1;;32107497;2.0.10.242;2.0.10.242;04-14-2023;14/04/2023 08:47;10:47:13;2.0.10.147;0;;-999999;22;15461;0;1;941;16402;1;1;1;2;1;1;1;BlockProcFischi;BlockList;1;25;0;;-999999;13;17612;0;1;932;18544;1;1;1;1;ProcFischi1;ListBlockFischi;36;1;2;0;0;3;Pr8_B;100;3;ug;3;2;26;1;36;3;1;TrialProc;2082;710;Pr8_B;69;1668;1737;ListFischi1;0;;2;203;314385;9;13;1698;316083;290;1;1698;1;751;544;1408;1;1
