ExperimentName;Subject;Session;Clock.Information;DataFile.Basename;Display.RefreshRate;ExperimentVersion;Group;Name;RandomSeed;RuntimeVersion;RuntimeVersionExpected;SessionDate;SessionStartDateTimeUtc;SessionTime;StudioVersion;SyncEprimeKinB1.ACC;SyncEprimeKinB1.CRESP;SyncEprimeKinB1.DurationError;SyncEprimeKinB1.OnsetDelay;SyncEprimeKinB1.OnsetTime;SyncEprimeKinB1.OnsetToOnsetTime;SyncEprimeKinB1.RESP;SyncEprimeKinB1.RT;SyncEprimeKinB1.RTTime;Block;BlockINT_0Fischi_1Suoni;BlockList;BlockList.Cycle;BlockList.Sample;ContatoreSuoni;NumSuono;Procedure[Block];Running[Block];Suonilist;SuonoFinSoglia;SyncEprimeKinFischi1.ACC;SyncEprimeKinFischi1.CRESP;SyncEprimeKinFischi1.DurationError;SyncEprimeKinFischi1.OnsetDelay;SyncEprimeKinFischi1.OnsetTime;SyncEprimeKinFischi1.OnsetToOnsetTime;SyncEprimeKinFischi1.RESP;SyncEprimeKinFischi1.RT;SyncEprimeKinFischi1.RTTime;Trial;ListBlockFischi;ListBlockFischi.Cycle;ListBlockFischi.Sample;Procedure[Trial];Running[Trial];SubTrial;AccSogg1;Avatar_Giu1_Su2;CatchTrial_CORR;ContatoreFinestraSoglia;CorrectResponse;File_Name;FinestraSoglia;IdcondEEG;Istruzione;KeySoggetto1;KeySoggetto2;ListFischi1;ListFischi1.Cycle;ListFischi1.Sample;NumeroSuono;OP_UG;Procedure[SubTrial];Resoconto.RT;RTChange;RTimage;RTNetto;RTSubj;RTTouch;Running[SubTrial];StartGo.ACC;StartGo.CRESP;StartGo.DurationError;StartGo.OnsetDelay;StartGo.OnsetTime;StartGo.OnsetToOnsetTime;StartGo.RESP;StartGo.RT;StartGo.RTTime;StartSoggetto1;StartSoggetto2;StopSoggetto1;StopSoggetto2;StopTrial.RT;tempo;TMSoggetto1;ValiditaTrial;Vincitore
TMS_Ibrahim;54;1;"<?xml version=""1.0""?>\n<Clock xmlns:dt=""urn:schemas-microsoft-com:datatypes""><Description dt:dt=""string"">E-Prime Primary Realtime Clock</Description><StartTime><Timestamp dt:dt=""int"">0</Timestamp><DateUtc dt:dt=""string"">2023-05-04T14:46:14Z</DateUtc></StartTime><FrequencyChanges><FrequencyChange><Frequency dt:dt=""r8"">3312871</Frequency><Timestamp dt:dt=""r8"">33575505169</Timestamp><Current dt:dt=""r8"">0</Current><DateUtc dt:dt=""string"">2023-05-04T14:46:14Z</DateUtc></FrequencyChange></FrequencyChanges></Clock>\n";TMS_Ibrahim-54-1;75.029;1.0.0.561;1;;-783599334;2.0.10.242;2.0.10.242;05/04/2023;04/05/2023 14:46;16:46:15;2.0.10.147;0;;-999999;41;31615;0;1;4204;35819;1;1;1;2;1;0;1;BlockProcFischi;BlockList;1;75;0;;-999999;33;36982;0;1;286;37268;1;1;1;1;ProcFischi1;ListBlockFischi;1;1;2;0;0;3;Pr4_B;250;3;ug;3;2;24;1;1;3;1;TrialProc;811;705;Pr4_B;166;1470;1304;ListFischi1;0;;5;211;39244;16;13;1494;40738;646;1;1494;1;215;337;848;1;1
TMS_Ibrahim;54;1;"<?xml version=""1.0""?>\n<Clock xmlns:dt=""urn:schemas-microsoft-com:datatypes""><Description dt:dt=""string"">E-Prime Primary Realtime Clock</Description><StartTime><Timestamp dt:dt=""int"">0</Timestamp><DateUtc dt:dt=""string"">2023-05-04T14:46:14Z</DateUtc></StartTime><FrequencyChanges><FrequencyChange><Frequency dt:dt=""r8"">3312871</Frequency><Timestamp dt:dt=""r8"">33575505169</Timestamp><Current dt:dt=""r8"">0</Current><DateUtc dt:dt=""string"">2023-05-04T14:46:14Z</DateUtc></FrequencyChange></FrequencyChanges></Clock>\n";TMS_Ibrahim-54-1;75.029;1.0.0.561;1;;-783599334;2.0.10.242;2.0.10.242;05/04/2023;04/05/2023 14:46;16:46:15;2.0.10.147;0;;-999999;41;31615;0;1;4204;35819;1;1;1;2;1;0;1;BlockProcFischi;BlockList;1;75;0;;-999999;33;36982;0;1;286;37268;1;1;1;1;ProcFischi1;ListBlockFischi;2;1;2;0;0;3;Pr2_B;225;3;ug;3;2;17;1;2;3;1;TrialProc;1386;709;Pr2_B;55;1298;1242;ListFischi1;0;;1;205;46426;5;13;1319;47745;520;1;1319;1;310;329;799;1;1
TMS_Ibrahim;54;1;"<?xml version=""1.0""?>\n<Clock xmlns:dt=""urn:schemas-microsoft-com:datatypes""><Description dt:dt=""string"">E-Prime Primary Realtime Clock</Description><StartTime><Timestamp dt:dt=""int"">0</Timestamp><DateUtc dt:dt=""string"">2023-05-04T14:46:14Z</DateUtc></StartTime><FrequencyChanges><FrequencyChange><Frequency dt:dt=""r8"">3312871</Frequency><Timestamp dt:dt=""r8"">33575505169</Timestamp><Current dt:dt=""r8"">0</Current><DateUtc dt:dt=""string"">2023-05-04T14:46:14Z</DateUtc></FrequencyChange></FrequencyChanges></Clock>\n";TMS_Ibrahim-54-1;75.029;1.0.0.561;1;;-783599334;2.0.10.242;2.0.10.242;05/04/2023;04/05/2023 14:46;16:46:15;2.0.10.147;0;;-999999;41;31615;0;1;4204;35819;1;1;1;2;1;0;1;BlockProcFischi;BlockList;1;75;0;;-999999;33;36982;0;1;286;37268;1;1;1;1;ProcFischi1;ListBlockFischi;3;0;2;0;0;5;Pr2_B;;1;op;3;2;11;1;3;1;0;TrialProc;750;721;Pr2_B;139;1392;1254;ListFischi1;0;;1;203;53439;16;13;1426;54865;514;1;1426;1;626;455;912;1;0
TMS_Ibrahim;54;1;"<?xml version=""1.0""?>\n<Clock xmlns:dt=""urn:schemas-microsoft-com:datatypes""><Description dt:dt=""string"">E-Prime Primary Realtime Clock</Description><StartTime><Timestamp dt:dt=""int"">0</Timestamp><DateUtc dt:dt=""string"">2023-05-04T14:46:14Z</DateUtc></StartTime><FrequencyChanges><FrequencyChange><Frequency dt:dt=""r8"">3312871</Frequency><Timestamp dt:dt=""r8"">33575505169</Timestamp><Current dt:dt=""r8"">0</Current><DateUtc dt:dt=""string"">2023-05-04T14:46:14Z</DateUtc></FrequencyChange></FrequencyChanges></Clock>\n";TMS_Ibrahim-54-1;75.029;1.0.0.561;1;;-783599334;2.0.10.242;2.0.10.242;05/04/2023;04/05/2023 14:46;16:46:15;2.0.10.147;0;;-999999;41;31615;0;1;4204;35819;1;1;1;2;1;0;1;BlockProcFischi;BlockList;1;75;0;;-999999;33;36982;0;1;286;37268;1;1;1;1;ProcFischi1;ListBlockFischi;4;1;1;0;0;5;Po2_B;250;4;ug;5;2;54;1;4;4;1;TrialProc;480;1586;Po2_B;54;1759;1813;ListFischi1;0;;3;201;60529;16;15;1792;62321;656;1;1792;1;464;427;1136;1;1
TMS_Ibrahim;54;1;"<?xml version=""1.0""?>\n<Clock xmlns:dt=""urn:schemas-microsoft-com:datatypes""><Description dt:dt=""string"">E-Prime Primary Realtime Clock</Description><StartTime><Timestamp dt:dt=""int"">0</Timestamp><DateUtc dt:dt=""string"">2023-05-04T14:46:14Z</DateUtc></StartTime><FrequencyChanges><FrequencyChange><Frequency dt:dt=""r8"">3312871</Frequency><Timestamp dt:dt=""r8"">33575505169</Timestamp><Current dt:dt=""r8"">0</Current><DateUtc dt:dt=""string"">2023-05-04T14:46:14Z</DateUtc></FrequencyChange></FrequencyChanges></Clock>\n";TMS_Ibrahim-54-1;75.029;1.0.0.561;1;;-783599334;2.0.10.242;2.0.10.242;05/04/2023;04/05/2023 14:46;16:46:15;2.0.10.147;0;;-999999;41;31615;0;1;4204;35819;1;1;1;2;1;0;1;BlockProcFischi;BlockList;1;75;0;;-999999;33;36982;0;1;286;37268;1;1;1;1;ProcFischi1;ListBlockFischi;5;1;1;0;0;5;Po5_B;225;4;ug;5;2;57;1;5;4;1;TrialProc;651;985;Po5_B;151;1327;1478;ListFischi1;0;;2;203;68021;15;15;1356;69377;380;1;1356;1;410;285;976;1;1
TMS_Ibrahim;54;1;"<?xml version=""1.0""?>\n<Clock xmlns:dt=""urn:schemas-microsoft-com:datatypes""><Description dt:dt=""string"">E-Prime Primary Realtime Clock</Description><StartTime><Timestamp dt:dt=""int"">0</Timestamp><DateUtc dt:dt=""string"">2023-05-04T14:46:14Z</DateUtc></StartTime><FrequencyChanges><FrequencyChange><Frequency dt:dt=""r8"">3312871</Frequency><Timestamp dt:dt=""r8"">33575505169</Timestamp><Current dt:dt=""r8"">0</Current><DateUtc dt:dt=""string"">2023-05-04T14:46:14Z</DateUtc></FrequencyChange></FrequencyChanges></Clock>\n";TMS_Ibrahim-54-1;75.029;1.0.0.561;1;;-783599334;2.0.10.242;2.0.10.242;05/04/2023;04/05/2023 14:46;16:46:15;2.0.10.147;0;;-999999;41;31615;0;1;4204;35819;1;1;1;2;1;0;1;BlockProcFischi;BlockList;1;75;0;;-999999;33;36982;0;1;286;37268;1;1;1;1;ProcFischi1;ListBlockFischi;6;1;1;1;0;3;Pomod_B;250;2;op;3;2;47;1;6;2;0;TrialProc;885;1319;Pomod_B;225;1903;1679;ListFischi1;0;;2;201;75231;15;13;1937;77168;609;1;1937;1;520;537;1328;1;1
TMS_Ibrahim;54;1;"<?xml version=""1.0""?>\n<Clock xmlns:dt=""urn:schemas-microsoft-com:datatypes""><Description dt:dt=""string"">E-Prime Primary Realtime Clock</Description><StartTime><Timestamp dt:dt=""int"">0</Timestamp><DateUtc dt:dt=""string"">2023-05-04T14:46:14Z</DateUtc></StartTime><FrequencyChanges><FrequencyChange><Frequency dt:dt=""r8"">3312871</Frequency><Timestamp dt:dt=""r8"">33575505169</Timestamp><Current dt:dt=""r8"">0</Current><DateUtc dt:dt=""string"">2023-05-04T14:46:14Z</DateUtc></FrequencyChange></FrequencyChanges></Clock>\n";TMS_Ibrahim-54-1;75.029;1.0.0.561;1;;-783599334;2.0.10.242;2.0.10.242;05/04/2023;04/05/2023 14:46;16:46:15;2.0.10.147;0;;-999999;41;31615;0;1;4204;35819;1;1;1;2;1;0;1;BlockProcFischi;BlockList;1;75;0;;-999999;33;36982;0;1;286;37268;1;1;1;1;ProcFischi1;ListBlockFischi;7;1;2;0;0;5;Pr5_B;250;1;op;5;2;4;1;7;1;0;TrialProc;562;677;Pr5_B;314;1590;1276;ListFischi1;0;;2;203;82217;13;15;1623;83840;375;1;1623;1;305;522;1248;1;1
TMS_Ibrahim;54;1;"<?xml version=""1.0""?>\n<Clock xmlns:dt=""urn:schemas-microsoft-com:datatypes""><Description dt:dt=""string"">E-Prime Primary Realtime Clock</Description><StartTime><Timestamp dt:dt=""int"">0</Timestamp><DateUtc dt:dt=""string"">2023-05-04T14:46:14Z</DateUtc></StartTime><FrequencyChanges><FrequencyChange><Frequency dt:dt=""r8"">3312871</Frequency><Timestamp dt:dt=""r8"">33575505169</Timestamp><Current dt:dt=""r8"">0</Current><DateUtc dt:dt=""string"">2023-05-04T14:46:14Z</DateUtc></FrequencyChange></FrequencyChanges></Clock>\n";TMS_Ibrahim-54-1;75.029;1.0.0.561;1;;-783599334;2.0.10.242;2.0.10.242;05/04/2023;04/05/2023 14:46;16:46:15;2.0.10.147;0;;-999999;41;31615;0;1;4204;35819;1;1;1;2;1;0;1;BlockProcFischi;BlockList;1;75;0;;-999999;33;36982;0;1;286;37268;1;1;1;1;ProcFischi1;ListBlockFischi;8;1;1;0;0;5;Po5_B;200;4;ug;5;2;52;1;8;4;1;TrialProc;579;983;Po5_B;158;1318;1476;ListFischi1;0;;2;201;89229;12;15;1347;90576;515;1;1347;1;847;322;832;1;1
TMS_Ibrahim;54;1;"<?xml version=""1.0""?>\n<Clock xmlns:dt=""urn:schemas-microsoft-com:datatypes""><Description dt:dt=""string"">E-Prime Primary Realtime Clock</Description><StartTime><Timestamp dt:dt=""int"">0</Timestamp><DateUtc dt:dt=""string"">2023-05-04T14:46:14Z</DateUtc></StartTime><FrequencyChanges><FrequencyChange><Frequency dt:dt=""r8"">3312871</Frequency><Timestamp dt:dt=""r8"">33575505169</Timestamp><Current dt:dt=""r8"">0</Current><DateUtc dt:dt=""string"">2023-05-04T14:46:14Z</DateUtc></FrequencyChange></FrequencyChanges></Clock>\n";TMS_Ibrahim-54-1;75.029;1.0.0.561;1;;-783599334;2.0.10.242;2.0.10.242;05/04/2023;04/05/2023 14:46;16:46:15;2.0.10.147;0;;-999999;41;31615;0;1;4204;35819;1;1;1;2;1;0;1;BlockProcFischi;BlockList;1;75;0;;-999999;33;36982;0;1;286;37268;1;1;1;1;ProcFischi1;ListBlockFischi;9;1;2;0;0;3;Pr3_B;200;3;ug;3;2;23;1;9;3;1;TrialProc;341;713;Pr3_B;13;1728;1714;ListFischi1;0;;2;203;96682;9;13;1750;98432;438;1;1750;1;1139;429;1312;1;1
TMS_Ibrahim;54;1;"<?xml version=""1.0""?>\n<Clock xmlns:dt=""urn:schemas-microsoft-com:datatypes""><Description dt:dt=""string"">E-Prime Primary Realtime Clock</Description><StartTime><Timestamp dt:dt=""int"">0</Timestamp><DateUtc dt:dt=""string"">2023-05-04T14:46:14Z</DateUtc></StartTime><FrequencyChanges><FrequencyChange><Frequency dt:dt=""r8"">3312871</Frequency><Timestamp dt:dt=""r8"">33575505169</Timestamp><Current dt:dt=""r8"">0</Current><DateUtc dt:dt=""string"">2023-05-04T14:46:14Z</DateUtc></FrequencyChange></FrequencyChanges></Clock>\n";TMS_Ibrahim-54-1;75.029;1.0.0.561;1;;-783599334;2.0.10.242;2.0.10.242;05/04/2023;04/05/2023 14:46;16:46:15;2.0.10.147;0;;-999999;41;31615;0;1;4204;35819;1;1;1;2;1;0;1;BlockProcFischi;BlockList;1;75;0;;-999999;33;36982;0;1;286;37268;1;1;1;1;ProcFischi1;ListBlockFischi;10;0;1;0;0;3;Po3_B;;2;op;5;2;39;1;10;2;0;TrialProc;312;1313;Po3_B;124;1456;1580;ListFischi1;0;;2;203;103971;11;15;1485;105456;605;1;1485;1;619;204;880;1;0
TMS_Ibrahim;54;1;"<?xml version=""1.0""?>\n<Clock xmlns:dt=""urn:schemas-microsoft-com:datatypes""><Description dt:dt=""string"">E-Prime Primary Realtime Clock</Description><StartTime><Timestamp dt:dt=""int"">0</Timestamp><DateUtc dt:dt=""string"">2023-05-04T14:46:14Z</DateUtc></StartTime><FrequencyChanges><FrequencyChange><Frequency dt:dt=""r8"">3312871</Frequency><Timestamp dt:dt=""r8"">33575505169</Timestamp><Current dt:dt=""r8"">0</Current><DateUtc dt:dt=""string"">2023-05-04T14:46:14Z</DateUtc></FrequencyChange></FrequencyChanges></Clock>\n";TMS_Ibrahim-54-1;75.029;1.0.0.561;1;;-783599334;2.0.10.242;2.0.10.242;05/04/2023;04/05/2023 14:46;16:46:15;2.0.10.147;0;;-999999;41;31615;0;1;4204;35819;1;1;1;2;1;0;1;BlockProcFischi;BlockList;1;75;0;;-999999;33;36982;0;1;286;37268;1;1;1;1;ProcFischi1;ListBlockFischi;11;1;2;1;1;5;Prmod_B;250;1;op;5;2;15;1;11;1;0;TrialProc;669;1315;Prmod_B;332;1316;1648;ListFischi1;0;;3;201;111246;13;1535;2465;113711;481;1;1345;1;953;330;864;1;1
TMS_Ibrahim;54;1;"<?xml version=""1.0""?>\n<Clock xmlns:dt=""urn:schemas-microsoft-com:datatypes""><Description dt:dt=""string"">E-Prime Primary Realtime Clock</Description><StartTime><Timestamp dt:dt=""int"">0</Timestamp><DateUtc dt:dt=""string"">2023-05-04T14:46:14Z</DateUtc></StartTime><FrequencyChanges><FrequencyChange><Frequency dt:dt=""r8"">3312871</Frequency><Timestamp dt:dt=""r8"">33575505169</Timestamp><Current dt:dt=""r8"">0</Current><DateUtc dt:dt=""string"">2023-05-04T14:46:14Z</DateUtc></FrequencyChange></FrequencyChanges></Clock>\n";TMS_Ibrahim-54-1;75.029;1.0.0.561;1;;-783599334;2.0.10.242;2.0.10.242;05/04/2023;04/05/2023 14:46;16:46:15;2.0.10.147;0;;-999999;41;31615;0;1;4204;35819;1;1;1;2;1;0;1;BlockProcFischi;BlockList;1;75;0;;-999999;33;36982;0;1;286;37268;1;1;1;1;ProcFischi1;ListBlockFischi;12;1;2;0;0;3;Pr5_B;175;3;ug;3;2;20;1;12;3;1;TrialProc;442;676;Pr5_B;281;1557;1276;ListFischi1;0;;2;203;117539;11;13;1580;119119;540;1;1580;1;1246;315;1040;1;1
TMS_Ibrahim;54;1;"<?xml version=""1.0""?>\n<Clock xmlns:dt=""urn:schemas-microsoft-com:datatypes""><Description dt:dt=""string"">E-Prime Primary Realtime Clock</Description><StartTime><Timestamp dt:dt=""int"">0</Timestamp><DateUtc dt:dt=""string"">2023-05-04T14:46:14Z</DateUtc></StartTime><FrequencyChanges><FrequencyChange><Frequency dt:dt=""r8"">3312871</Frequency><Timestamp dt:dt=""r8"">33575505169</Timestamp><Current dt:dt=""r8"">0</Current><DateUtc dt:dt=""string"">2023-05-04T14:46:14Z</DateUtc></FrequencyChange></FrequencyChanges></Clock>\n";TMS_Ibrahim-54-1;75.029;1.0.0.561;1;;-783599334;2.0.10.242;2.0.10.242;05/04/2023;04/05/2023 14:46;16:46:15;2.0.10.147;0;;-999999;41;31615;0;1;4204;35819;1;1;1;2;1;0;1;BlockProcFischi;BlockList;1;75;0;;-999999;33;36982;0;1;286;37268;1;1;1;1;ProcFischi1;ListBlockFischi;13;1;1;0;0;3;Po5_B;250;2;op;3;2;36;1;13;2;0;TrialProc;373;996;Po5_B;124;1352;1476;ListFischi1;0;;2;201;124415;12;13;1376;125791;453;1;1376;1;678;383;923;1;1
TMS_Ibrahim;54;1;"<?xml version=""1.0""?>\n<Clock xmlns:dt=""urn:schemas-microsoft-com:datatypes""><Description dt:dt=""string"">E-Prime Primary Realtime Clock</Description><StartTime><Timestamp dt:dt=""int"">0</Timestamp><DateUtc dt:dt=""string"">2023-05-04T14:46:14Z</DateUtc></StartTime><FrequencyChanges><FrequencyChange><Frequency dt:dt=""r8"">3312871</Frequency><Timestamp dt:dt=""r8"">33575505169</Timestamp><Current dt:dt=""r8"">0</Current><DateUtc dt:dt=""string"">2023-05-04T14:46:14Z</DateUtc></FrequencyChange></FrequencyChanges></Clock>\n";TMS_Ibrahim-54-1;75.029;1.0.0.561;1;;-783599334;2.0.10.242;2.0.10.242;05/04/2023;04/05/2023 14:46;16:46:15;2.0.10.147;0;;-999999;41;31615;0;1;4204;35819;1;1;1;2;1;0;1;BlockProcFischi;BlockList;1;75;0;;-999999;33;36982;0;1;286;37268;1;1;1;1;ProcFischi1;ListBlockFischi;14;1;1;0;0;5;Po8_B;175;4;ug;5;2;58;1;14;4;1;TrialProc;544;1245;Po8_B;121;1457;1579;ListFischi1;0;;2;203;131762;9;15;1485;133247;749;1;1485;1;481;404;736;1;1
TMS_Ibrahim;54;1;"<?xml version=""1.0""?>\n<Clock xmlns:dt=""urn:schemas-microsoft-com:datatypes""><Description dt:dt=""string"">E-Prime Primary Realtime Clock</Description><StartTime><Timestamp dt:dt=""int"">0</Timestamp><DateUtc dt:dt=""string"">2023-05-04T14:46:14Z</DateUtc></StartTime><FrequencyChanges><FrequencyChange><Frequency dt:dt=""r8"">3312871</Frequency><Timestamp dt:dt=""r8"">33575505169</Timestamp><Current dt:dt=""r8"">0</Current><DateUtc dt:dt=""string"">2023-05-04T14:46:14Z</DateUtc></FrequencyChange></FrequencyChanges></Clock>\n";TMS_Ibrahim-54-1;75.029;1.0.0.561;1;;-783599334;2.0.10.242;2.0.10.242;05/04/2023;04/05/2023 14:46;16:46:15;2.0.10.147;0;;-999999;41;31615;0;1;4204;35819;1;1;1;2;1;0;1;BlockProcFischi;BlockList;1;75;0;;-999999;33;36982;0;1;286;37268;1;1;1;1;ProcFischi1;ListBlockFischi;15;1;2;1;2;5;Prmod_B;250;1;op;5;2;16;1;15;1;0;TrialProc;660;1313;Prmod_B;137;1783;1646;ListFischi1;0;;2;201;139078;10;15;1816;140894;760;1;1816;1;700;215;1056;1;1
TMS_Ibrahim;54;1;"<?xml version=""1.0""?>\n<Clock xmlns:dt=""urn:schemas-microsoft-com:datatypes""><Description dt:dt=""string"">E-Prime Primary Realtime Clock</Description><StartTime><Timestamp dt:dt=""int"">0</Timestamp><DateUtc dt:dt=""string"">2023-05-04T14:46:14Z</DateUtc></StartTime><FrequencyChanges><FrequencyChange><Frequency dt:dt=""r8"">3312871</Frequency><Timestamp dt:dt=""r8"">33575505169</Timestamp><Current dt:dt=""r8"">0</Current><DateUtc dt:dt=""string"">2023-05-04T14:46:14Z</DateUtc></FrequencyChange></FrequencyChanges></Clock>\n";TMS_Ibrahim-54-1;75.029;1.0.0.561;1;;-783599334;2.0.10.242;2.0.10.242;05/04/2023;04/05/2023 14:46;16:46:15;2.0.10.147;0;;-999999;41;31615;0;1;4204;35819;1;1;1;2;1;0;1;BlockProcFischi;BlockList;1;75;0;;-999999;33;36982;0;1;286;37268;1;1;1;1;ProcFischi1;ListBlockFischi;16;1;1;1;0;5;Pomod_B;150;4;ug;5;2;64;1;16;4;1;TrialProc;912;1313;Pomod_B;146;1820;1674;ListFischi1;0;;2;203;146116;9;15;1850;147966;523;1;1850;1;790;565;1327;1;1
TMS_Ibrahim;54;1;"<?xml version=""1.0""?>\n<Clock xmlns:dt=""urn:schemas-microsoft-com:datatypes""><Description dt:dt=""string"">E-Prime Primary Realtime Clock</Description><StartTime><Timestamp dt:dt=""int"">0</Timestamp><DateUtc dt:dt=""string"">2023-05-04T14:46:14Z</DateUtc></StartTime><FrequencyChanges><FrequencyChange><Frequency dt:dt=""r8"">3312871</Frequency><Timestamp dt:dt=""r8"">33575505169</Timestamp><Current dt:dt=""r8"">0</Current><DateUtc dt:dt=""string"">2023-05-04T14:46:14Z</DateUtc></FrequencyChange></FrequencyChanges></Clock>\n";TMS_Ibrahim-54-1;75.029;1.0.0.561;1;;-783599334;2.0.10.242;2.0.10.242;05/04/2023;04/05/2023 14:46;16:46:15;2.0.10.147;0;;-999999;41;31615;0;1;4204;35819;1;1;1;2;1;0;1;BlockProcFischi;BlockList;1;75;0;;-999999;33;36982;0;1;286;37268;1;1;1;1;ProcFischi1;ListBlockFischi;17;1;1;0;0;3;Po5_B;225;2;op;3;2;46;1;17;2;0;TrialProc;1315;982;Po5_B;104;1372;1476;ListFischi1;0;;2;201;153058;11;13;1404;154462;508;1;1404;1;438;443;896;1;1
TMS_Ibrahim;54;1;"<?xml version=""1.0""?>\n<Clock xmlns:dt=""urn:schemas-microsoft-com:datatypes""><Description dt:dt=""string"">E-Prime Primary Realtime Clock</Description><StartTime><Timestamp dt:dt=""int"">0</Timestamp><DateUtc dt:dt=""string"">2023-05-04T14:46:14Z</DateUtc></StartTime><FrequencyChanges><FrequencyChange><Frequency dt:dt=""r8"">3312871</Frequency><Timestamp dt:dt=""r8"">33575505169</Timestamp><Current dt:dt=""r8"">0</Current><DateUtc dt:dt=""string"">2023-05-04T14:46:14Z</DateUtc></FrequencyChange></FrequencyChanges></Clock>\n";TMS_Ibrahim-54-1;75.029;1.0.0.561;1;;-783599334;2.0.10.242;2.0.10.242;05/04/2023;04/05/2023 14:46;16:46:15;2.0.10.147;0;;-999999;41;31615;0;1;4204;35819;1;1;1;2;1;0;1;BlockProcFischi;BlockList;1;75;0;;-999999;33;36982;0;1;286;37268;1;1;1;1;ProcFischi1;ListBlockFischi;18;1;1;0;0;5;Po3_B;150;4;ug;5;2;55;1;18;4;1;TrialProc;596;1316;Po3_B;72;1656;1584;ListFischi1;0;;2;203;160507;13;15;1683;162190;403;1;1683;1;1185;546;1280;1;1
TMS_Ibrahim;54;1;"<?xml version=""1.0""?>\n<Clock xmlns:dt=""urn:schemas-microsoft-com:datatypes""><Description dt:dt=""string"">E-Prime Primary Realtime Clock</Description><StartTime><Timestamp dt:dt=""int"">0</Timestamp><DateUtc dt:dt=""string"">2023-05-04T14:46:14Z</DateUtc></StartTime><FrequencyChanges><FrequencyChange><Frequency dt:dt=""r8"">3312871</Frequency><Timestamp dt:dt=""r8"">33575505169</Timestamp><Current dt:dt=""r8"">0</Current><DateUtc dt:dt=""string"">2023-05-04T14:46:14Z</DateUtc></FrequencyChange></FrequencyChanges></Clock>\n";TMS_Ibrahim-54-1;75.029;1.0.0.561;1;;-783599334;2.0.10.242;2.0.10.242;05/04/2023;04/05/2023 14:46;16:46:15;2.0.10.147;0;;-999999;41;31615;0;1;4204;35819;1;1;1;2;1;0;1;BlockProcFischi;BlockList;1;75;0;;-999999;33;36982;0;1;286;37268;1;1;1;1;ProcFischi1;ListBlockFischi;19;1;1;0;0;3;Po2_B;200;2;op;3;2;38;1;19;2;0;TrialProc;427;1585;Po2_B;187;1998;1811;ListFischi1;0;;2;201;167743;14;13;2030;169773;463;1;2030;1;2529;238;1567;1;1
TMS_Ibrahim;54;1;"<?xml version=""1.0""?>\n<Clock xmlns:dt=""urn:schemas-microsoft-com:datatypes""><Description dt:dt=""string"">E-Prime Primary Realtime Clock</Description><StartTime><Timestamp dt:dt=""int"">0</Timestamp><DateUtc dt:dt=""string"">2023-05-04T14:46:14Z</DateUtc></StartTime><FrequencyChanges><FrequencyChange><Frequency dt:dt=""r8"">3312871</Frequency><Timestamp dt:dt=""r8"">33575505169</Timestamp><Current dt:dt=""r8"">0</Current><DateUtc dt:dt=""string"">2023-05-04T14:46:14Z</DateUtc></FrequencyChange></FrequencyChanges></Clock>\n";TMS_Ibrahim-54-1;75.029;1.0.0.561;1;;-783599334;2.0.10.242;2.0.10.242;05/04/2023;04/05/2023 14:46;16:46:15;2.0.10.147;0;;-999999;41;31615;0;1;4204;35819;1;1;1;2;1;0;1;BlockProcFischi;BlockList;1;75;0;;-999999;33;36982;0;1;286;37268;1;1;1;1;ProcFischi1;ListBlockFischi;20;1;1;1;0;5;Pomod_B;125;4;ug;5;2;63;1;20;4;1;TrialProc;595;1316;Pomod_B;438;2113;1675;ListFischi1;0;;2;203;175090;11;15;2139;177229;443;1;2139;1;670;529;1696;1;1
TMS_Ibrahim;54;1;"<?xml version=""1.0""?>\n<Clock xmlns:dt=""urn:schemas-microsoft-com:datatypes""><Description dt:dt=""string"">E-Prime Primary Realtime Clock</Description><StartTime><Timestamp dt:dt=""int"">0</Timestamp><DateUtc dt:dt=""string"">2023-05-04T14:46:14Z</DateUtc></StartTime><FrequencyChanges><FrequencyChange><Frequency dt:dt=""r8"">3312871</Frequency><Timestamp dt:dt=""r8"">33575505169</Timestamp><Current dt:dt=""r8"">0</Current><DateUtc dt:dt=""string"">2023-05-04T14:46:14Z</DateUtc></FrequencyChange></FrequencyChanges></Clock>\n";TMS_Ibrahim-54-1;75.029;1.0.0.561;1;;-783599334;2.0.10.242;2.0.10.242;05/04/2023;04/05/2023 14:46;16:46:15;2.0.10.147;0;;-999999;41;31615;0;1;4204;35819;1;1;1;2;1;0;1;BlockProcFischi;BlockList;1;75;0;;-999999;33;36982;0;1;286;37268;1;1;1;1;ProcFischi1;ListBlockFischi;21;1;2;0;1;3;Pr8_B;175;3;ug;3;2;21;1;21;3;1;TrialProc;476;718;Pr8_B;45;1791;1746;ListFischi1;0;;3;201;182056;15;13;1813;183869;453;1;1813;1;774;409;1360;1;1
TMS_Ibrahim;54;1;"<?xml version=""1.0""?>\n<Clock xmlns:dt=""urn:schemas-microsoft-com:datatypes""><Description dt:dt=""string"">E-Prime Primary Realtime Clock</Description><StartTime><Timestamp dt:dt=""int"">0</Timestamp><DateUtc dt:dt=""string"">2023-05-04T14:46:14Z</DateUtc></StartTime><FrequencyChanges><FrequencyChange><Frequency dt:dt=""r8"">3312871</Frequency><Timestamp dt:dt=""r8"">33575505169</Timestamp><Current dt:dt=""r8"">0</Current><DateUtc dt:dt=""string"">2023-05-04T14:46:14Z</DateUtc></FrequencyChange></FrequencyChanges></Clock>\n";TMS_Ibrahim-54-1;75.029;1.0.0.561;1;;-783599334;2.0.10.242;2.0.10.242;05/04/2023;04/05/2023 14:46;16:46:15;2.0.10.147;0;;-999999;41;31615;0;1;4204;35819;1;1;1;2;1;0;1;BlockProcFischi;BlockList;1;75;0;;-999999;33;36982;0;1;286;37268;1;1;1;1;ProcFischi1;ListBlockFischi;22;1;1;0;1;5;Po3_B;125;4;ug;5;2;60;1;22;4;1;TrialProc;664;1321;Po3_B;11;1597;1587;ListFischi1;0;;2;203;189158;17;15;1623;190781;455;1;1623;1;540;570;1168;1;1
TMS_Ibrahim;54;1;"<?xml version=""1.0""?>\n<Clock xmlns:dt=""urn:schemas-microsoft-com:datatypes""><Description dt:dt=""string"">E-Prime Primary Realtime Clock</Description><StartTime><Timestamp dt:dt=""int"">0</Timestamp><DateUtc dt:dt=""string"">2023-05-04T14:46:14Z</DateUtc></StartTime><FrequencyChanges><FrequencyChange><Frequency dt:dt=""r8"">3312871</Frequency><Timestamp dt:dt=""r8"">33575505169</Timestamp><Current dt:dt=""r8"">0</Current><DateUtc dt:dt=""string"">2023-05-04T14:46:14Z</DateUtc></FrequencyChange></FrequencyChanges></Clock>\n";TMS_Ibrahim-54-1;75.029;1.0.0.561;1;;-783599334;2.0.10.242;2.0.10.242;05/04/2023;04/05/2023 14:46;16:46:15;2.0.10.147;0;;-999999;41;31615;0;1;4204;35819;1;1;1;2;1;0;1;BlockProcFischi;BlockList;1;75;0;;-999999;33;36982;0;1;286;37268;1;1;1;1;ProcFischi1;ListBlockFischi;23;1;2;0;0;3;Pr8_B;150;3;ug;3;2;26;1;23;3;1;TrialProc;636;718;Pr8_B;31;1775;1745;ListFischi1;0;;2;201;196439;14;13;1798;198237;342;1;1798;1;514;238;1456;1;1
TMS_Ibrahim;54;1;"<?xml version=""1.0""?>\n<Clock xmlns:dt=""urn:schemas-microsoft-com:datatypes""><Description dt:dt=""string"">E-Prime Primary Realtime Clock</Description><StartTime><Timestamp dt:dt=""int"">0</Timestamp><DateUtc dt:dt=""string"">2023-05-04T14:46:14Z</DateUtc></StartTime><FrequencyChanges><FrequencyChange><Frequency dt:dt=""r8"">3312871</Frequency><Timestamp dt:dt=""r8"">33575505169</Timestamp><Current dt:dt=""r8"">0</Current><DateUtc dt:dt=""string"">2023-05-04T14:46:14Z</DateUtc></FrequencyChange></FrequencyChanges></Clock>\n";TMS_Ibrahim-54-1;75.029;1.0.0.561;1;;-783599334;2.0.10.242;2.0.10.242;05/04/2023;04/05/2023 14:46;16:46:15;2.0.10.147;0;;-999999;41;31615;0;1;4204;35819;1;1;1;2;1;0;1;BlockProcFischi;BlockList;1;75;0;;-999999;33;36982;0;1;286;37268;1;1;1;1;ProcFischi1;ListBlockFischi;24;1;2;0;0;5;Pr2_B;225;1;op;5;2;6;1;24;1;0;TrialProc;327;718;Pr2_B;613;1863;1251;ListFischi1;0;;2;203;203729;14;15;1883;205612;524;1;1883;1;1878;374;1359;1;1
TMS_Ibrahim;54;1;"<?xml version=""1.0""?>\n<Clock xmlns:dt=""urn:schemas-microsoft-com:datatypes""><Description dt:dt=""string"">E-Prime Primary Realtime Clock</Description><StartTime><Timestamp dt:dt=""int"">0</Timestamp><DateUtc dt:dt=""string"">2023-05-04T14:46:14Z</DateUtc></StartTime><FrequencyChanges><FrequencyChange><Frequency dt:dt=""r8"">3312871</Frequency><Timestamp dt:dt=""r8"">33575505169</Timestamp><Current dt:dt=""r8"">0</Current><DateUtc dt:dt=""string"">2023-05-04T14:46:14Z</DateUtc></FrequencyChange></FrequencyChanges></Clock>\n";TMS_Ibrahim-54-1;75.029;1.0.0.561;1;;-783599334;2.0.10.242;2.0.10.242;05/04/2023;04/05/2023 14:46;16:46:15;2.0.10.147;0;;-999999;41;31615;0;1;4204;35819;1;1;1;2;1;0;1;BlockProcFischi;BlockList;1;75;0;;-999999;33;36982;0;1;286;37268;1;1;1;1;ProcFischi1;ListBlockFischi;25;0;1;0;0;5;Po5_B;;4;ug;3;2;62;1;25;4;1;TrialProc;514;981;Po5_B;168;1306;1474;ListFischi1;0;;2;201;210490;10;135;1922;212412;370;1;1330;1;819;551;960;1;0
TMS_Ibrahim;54;1;"<?xml version=""1.0""?>\n<Clock xmlns:dt=""urn:schemas-microsoft-com:datatypes""><Description dt:dt=""string"">E-Prime Primary Realtime Clock</Description><StartTime><Timestamp dt:dt=""int"">0</Timestamp><DateUtc dt:dt=""string"">2023-05-04T14:46:14Z</DateUtc></StartTime><FrequencyChanges><FrequencyChange><Frequency dt:dt=""r8"">3312871</Frequency><Timestamp dt:dt=""r8"">33575505169</Timestamp><Current dt:dt=""r8"">0</Current><DateUtc dt:dt=""string"">2023-05-04T14:46:14Z</DateUtc></FrequencyChange></FrequencyChanges></Clock>\n";TMS_Ibrahim-54-1;75.029;1.0.0.561;1;;-783599334;2.0.10.242;2.0.10.242;05/04/2023;04/05/2023 14:46;16:46:15;2.0.10.147;0;;-999999;41;31615;0;1;4204;35819;1;1;1;2;1;0;1;BlockProcFischi;BlockList;1;75;0;;-999999;33;36982;0;1;286;37268;1;1;1;1;ProcFischi1;ListBlockFischi;26;1;1;0;0;5;Po2_B;100;4;ug;5;2;49;1;26;4;1;TrialProc;1271;1580;Po2_B;154;1654;1808;ListFischi1;0;;2;203;217126;12;15;1686;218812;262;1;1686;1;420;273;1424;1;1
TMS_Ibrahim;54;1;"<?xml version=""1.0""?>\n<Clock xmlns:dt=""urn:schemas-microsoft-com:datatypes""><Description dt:dt=""string"">E-Prime Primary Realtime Clock</Description><StartTime><Timestamp dt:dt=""int"">0</Timestamp><DateUtc dt:dt=""string"">2023-05-04T14:46:14Z</DateUtc></StartTime><FrequencyChanges><FrequencyChange><Frequency dt:dt=""r8"">3312871</Frequency><Timestamp dt:dt=""r8"">33575505169</Timestamp><Current dt:dt=""r8"">0</Current><DateUtc dt:dt=""string"">2023-05-04T14:46:14Z</DateUtc></FrequencyChange></FrequencyChanges></Clock>\n";TMS_Ibrahim-54-1;75.029;1.0.0.561;1;;-783599334;2.0.10.242;2.0.10.242;05/04/2023;04/05/2023 14:46;16:46:15;2.0.10.147;0;;-999999;41;31615;0;1;4204;35819;1;1;1;2;1;0;1;BlockProcFischi;BlockList;1;75;0;;-999999;33;36982;0;1;286;37268;1;1;1;1;ProcFischi1;ListBlockFischi;27;1;2;0;1;5;Pr3_B;225;1;op;5;2;2;1;27;1;0;TrialProc;620;723;Pr3_B;214;1935;1722;ListFischi1;0;;2;201;224344;18;15;1956;226300;500;1;1956;1;206;205;1456;1;1
TMS_Ibrahim;54;1;"<?xml version=""1.0""?>\n<Clock xmlns:dt=""urn:schemas-microsoft-com:datatypes""><Description dt:dt=""string"">E-Prime Primary Realtime Clock</Description><StartTime><Timestamp dt:dt=""int"">0</Timestamp><DateUtc dt:dt=""string"">2023-05-04T14:46:14Z</DateUtc></StartTime><FrequencyChanges><FrequencyChange><Frequency dt:dt=""r8"">3312871</Frequency><Timestamp dt:dt=""r8"">33575505169</Timestamp><Current dt:dt=""r8"">0</Current><DateUtc dt:dt=""string"">2023-05-04T14:46:14Z</DateUtc></FrequencyChange></FrequencyChanges></Clock>\n";TMS_Ibrahim-54-1;75.029;1.0.0.561;1;;-783599334;2.0.10.242;2.0.10.242;05/04/2023;04/05/2023 14:46;16:46:15;2.0.10.147;0;;-999999;41;31615;0;1;4204;35819;1;1;1;2;1;0;1;BlockProcFischi;BlockList;1;75;0;;-999999;33;36982;0;1;286;37268;1;1;1;1;ProcFischi1;ListBlockFischi;28;1;1;0;1;5;Po4_B;100;4;ug;5;2;61;1;28;4;1;TrialProc;564;1342;Po4_B;222;1494;1716;ListFischi1;0;;2;203;231320;12;15;1523;232843;371;1;1523;1;596;246;1152;1;1
TMS_Ibrahim;54;1;"<?xml version=""1.0""?>\n<Clock xmlns:dt=""urn:schemas-microsoft-com:datatypes""><Description dt:dt=""string"">E-Prime Primary Realtime Clock</Description><StartTime><Timestamp dt:dt=""int"">0</Timestamp><DateUtc dt:dt=""string"">2023-05-04T14:46:14Z</DateUtc></StartTime><FrequencyChanges><FrequencyChange><Frequency dt:dt=""r8"">3312871</Frequency><Timestamp dt:dt=""r8"">33575505169</Timestamp><Current dt:dt=""r8"">0</Current><DateUtc dt:dt=""string"">2023-05-04T14:46:14Z</DateUtc></FrequencyChange></FrequencyChanges></Clock>\n";TMS_Ibrahim-54-1;75.029;1.0.0.561;1;;-783599334;2.0.10.242;2.0.10.242;05/04/2023;04/05/2023 14:46;16:46:15;2.0.10.147;0;;-999999;41;31615;0;1;4204;35819;1;1;1;2;1;0;1;BlockProcFischi;BlockList;1;75;0;;-999999;33;36982;0;1;286;37268;1;1;1;1;ProcFischi1;ListBlockFischi;29;1;2;0;1;5;Pr3_B;225;1;op;5;2;12;1;29;1;0;TrialProc;1715;709;Pr3_B;96;1613;1710;ListFischi1;0;;2;201;238563;6;15;1640;240203;584;1;1640;1;348;550;1056;1;1
TMS_Ibrahim;54;1;"<?xml version=""1.0""?>\n<Clock xmlns:dt=""urn:schemas-microsoft-com:datatypes""><Description dt:dt=""string"">E-Prime Primary Realtime Clock</Description><StartTime><Timestamp dt:dt=""int"">0</Timestamp><DateUtc dt:dt=""string"">2023-05-04T14:46:14Z</DateUtc></StartTime><FrequencyChanges><FrequencyChange><Frequency dt:dt=""r8"">3312871</Frequency><Timestamp dt:dt=""r8"">33575505169</Timestamp><Current dt:dt=""r8"">0</Current><DateUtc dt:dt=""string"">2023-05-04T14:46:14Z</DateUtc></FrequencyChange></FrequencyChanges></Clock>\n";TMS_Ibrahim-54-1;75.029;1.0.0.561;1;;-783599334;2.0.10.242;2.0.10.242;05/04/2023;04/05/2023 14:46;16:46:15;2.0.10.147;0;;-999999;41;31615;0;1;4204;35819;1;1;1;2;1;0;1;BlockProcFischi;BlockList;1;75;0;;-999999;33;36982;0;1;286;37268;1;1;1;1;ProcFischi1;ListBlockFischi;30;0;1;1;0;3;Pomod_B;;2;op;5;2;48;1;30;2;0;TrialProc;663;1313;Pomod_B;271;1400;1672;ListFischi1;0;;2;203;246143;10;153;1916;248059;588;1;1436;1;687;446;848;1;0
TMS_Ibrahim;54;1;"<?xml version=""1.0""?>\n<Clock xmlns:dt=""urn:schemas-microsoft-com:datatypes""><Description dt:dt=""string"">E-Prime Primary Realtime Clock</Description><StartTime><Timestamp dt:dt=""int"">0</Timestamp><DateUtc dt:dt=""string"">2023-05-04T14:46:14Z</DateUtc></StartTime><FrequencyChanges><FrequencyChange><Frequency dt:dt=""r8"">3312871</Frequency><Timestamp dt:dt=""r8"">33575505169</Timestamp><Current dt:dt=""r8"">0</Current><DateUtc dt:dt=""string"">2023-05-04T14:46:14Z</DateUtc></FrequencyChange></FrequencyChanges></Clock>\n";TMS_Ibrahim-54-1;75.029;1.0.0.561;1;;-783599334;2.0.10.242;2.0.10.242;05/04/2023;04/05/2023 14:46;16:46:15;2.0.10.147;0;;-999999;41;31615;0;1;4204;35819;1;1;1;2;1;0;1;BlockProcFischi;BlockList;1;75;0;;-999999;33;36982;0;1;286;37268;1;1;1;1;ProcFischi1;ListBlockFischi;31;1;1;0;0;3;Po2_B;200;2;op;3;2;43;1;31;2;0;TrialProc;959;1582;Po2_B;190;2000;1809;ListFischi1;0;;2;201;253032;12;13;2019;255051;547;1;2019;1;702;493;1472;1;1
TMS_Ibrahim;54;1;"<?xml version=""1.0""?>\n<Clock xmlns:dt=""urn:schemas-microsoft-com:datatypes""><Description dt:dt=""string"">E-Prime Primary Realtime Clock</Description><StartTime><Timestamp dt:dt=""int"">0</Timestamp><DateUtc dt:dt=""string"">2023-05-04T14:46:14Z</DateUtc></StartTime><FrequencyChanges><FrequencyChange><Frequency dt:dt=""r8"">3312871</Frequency><Timestamp dt:dt=""r8"">33575505169</Timestamp><Current dt:dt=""r8"">0</Current><DateUtc dt:dt=""string"">2023-05-04T14:46:14Z</DateUtc></FrequencyChange></FrequencyChanges></Clock>\n";TMS_Ibrahim-54-1;75.029;1.0.0.561;1;;-783599334;2.0.10.242;2.0.10.242;05/04/2023;04/05/2023 14:46;16:46:15;2.0.10.147;0;;-999999;41;31615;0;1;4204;35819;1;1;1;2;1;0;1;BlockProcFischi;BlockList;1;75;0;;-999999;33;36982;0;1;286;37268;1;1;1;1;ProcFischi1;ListBlockFischi;32;1;2;0;0;3;Pr3_B;125;3;ug;3;2;18;1;32;3;1;TrialProc;496;711;Pr3_B;31;1741;1711;ListFischi1;0;;2;203;259913;8;13;1777;261690;1041;1;1777;1;1033;210;736;1;1
TMS_Ibrahim;54;1;"<?xml version=""1.0""?>\n<Clock xmlns:dt=""urn:schemas-microsoft-com:datatypes""><Description dt:dt=""string"">E-Prime Primary Realtime Clock</Description><StartTime><Timestamp dt:dt=""int"">0</Timestamp><DateUtc dt:dt=""string"">2023-05-04T14:46:14Z</DateUtc></StartTime><FrequencyChanges><FrequencyChange><Frequency dt:dt=""r8"">3312871</Frequency><Timestamp dt:dt=""r8"">33575505169</Timestamp><Current dt:dt=""r8"">0</Current><DateUtc dt:dt=""string"">2023-05-04T14:46:14Z</DateUtc></FrequencyChange></FrequencyChanges></Clock>\n";TMS_Ibrahim-54-1;75.029;1.0.0.561;1;;-783599334;2.0.10.242;2.0.10.242;05/04/2023;04/05/2023 14:46;16:46:15;2.0.10.147;0;;-999999;41;31615;0;1;4204;35819;1;1;1;2;1;0;1;BlockProcFischi;BlockList;1;75;0;;-999999;33;36982;0;1;286;37268;1;1;1;1;ProcFischi1;ListBlockFischi;33;1;1;0;2;5;Po2_B;100;4;ug;5;2;59;1;33;4;1;TrialProc;310;1583;Po2_B;264;1545;1809;ListFischi1;0;;2;201;267107;11;15;1575;268682;599;1;1575;1;966;244;976;1;1
TMS_Ibrahim;54;1;"<?xml version=""1.0""?>\n<Clock xmlns:dt=""urn:schemas-microsoft-com:datatypes""><Description dt:dt=""string"">E-Prime Primary Realtime Clock</Description><StartTime><Timestamp dt:dt=""int"">0</Timestamp><DateUtc dt:dt=""string"">2023-05-04T14:46:14Z</DateUtc></StartTime><FrequencyChanges><FrequencyChange><Frequency dt:dt=""r8"">3312871</Frequency><Timestamp dt:dt=""r8"">33575505169</Timestamp><Current dt:dt=""r8"">0</Current><DateUtc dt:dt=""string"">2023-05-04T14:46:14Z</DateUtc></FrequencyChange></FrequencyChanges></Clock>\n";TMS_Ibrahim-54-1;75.029;1.0.0.561;1;;-783599334;2.0.10.242;2.0.10.242;05/04/2023;04/05/2023 14:46;16:46:15;2.0.10.147;0;;-999999;41;31615;0;1;4204;35819;1;1;1;2;1;0;1;BlockProcFischi;BlockList;1;75;0;;-999999;33;36982;0;1;286;37268;1;1;1;1;ProcFischi1;ListBlockFischi;34;1;2;1;0;3;Prmod_B;100;3;ug;3;2;32;1;34;3;1;TrialProc;597;1316;Prmod_B;41;1690;1648;ListFischi1;0;;2;203;274478;11;13;1708;276186;396;1;1708;1;355;358;1312;1;1
TMS_Ibrahim;54;1;"<?xml version=""1.0""?>\n<Clock xmlns:dt=""urn:schemas-microsoft-com:datatypes""><Description dt:dt=""string"">E-Prime Primary Realtime Clock</Description><StartTime><Timestamp dt:dt=""int"">0</Timestamp><DateUtc dt:dt=""string"">2023-05-04T14:46:14Z</DateUtc></StartTime><FrequencyChanges><FrequencyChange><Frequency dt:dt=""r8"">3312871</Frequency><Timestamp dt:dt=""r8"">33575505169</Timestamp><Current dt:dt=""r8"">0</Current><DateUtc dt:dt=""string"">2023-05-04T14:46:14Z</DateUtc></FrequencyChange></FrequencyChanges></Clock>\n";TMS_Ibrahim-54-1;75.029;1.0.0.561;1;;-783599334;2.0.10.242;2.0.10.242;05/04/2023;04/05/2023 14:46;16:46:15;2.0.10.147;0;;-999999;41;31615;0;1;4204;35819;1;1;1;2;1;0;1;BlockProcFischi;BlockList;1;75;0;;-999999;33;36982;0;1;286;37268;1;1;1;1;ProcFischi1;ListBlockFischi;35;1;1;0;0;3;Po3_B;200;2;op;3;2;34;1;35;2;0;TrialProc;661;1318;Po3_B;98;1486;1584;ListFischi1;0;;2;201;281551;15;133;1595;283146;702;1;1515;1;674;301;813;1;1
TMS_Ibrahim;54;1;"<?xml version=""1.0""?>\n<Clock xmlns:dt=""urn:schemas-microsoft-com:datatypes""><Description dt:dt=""string"">E-Prime Primary Realtime Clock</Description><StartTime><Timestamp dt:dt=""int"">0</Timestamp><DateUtc dt:dt=""string"">2023-05-04T14:46:14Z</DateUtc></StartTime><FrequencyChanges><FrequencyChange><Frequency dt:dt=""r8"">3312871</Frequency><Timestamp dt:dt=""r8"">33575505169</Timestamp><Current dt:dt=""r8"">0</Current><DateUtc dt:dt=""string"">2023-05-04T14:46:14Z</DateUtc></FrequencyChange></FrequencyChanges></Clock>\n";TMS_Ibrahim-54-1;75.029;1.0.0.561;1;;-783599334;2.0.10.242;2.0.10.242;05/04/2023;04/05/2023 14:46;16:46:15;2.0.10.147;0;;-999999;41;31615;0;1;4204;35819;1;1;1;2;1;0;1;BlockProcFischi;BlockList;1;75;0;;-999999;33;36982;0;1;286;37268;1;1;1;1;ProcFischi1;ListBlockFischi;36;1;1;0;0;3;Po8_B;175;2;op;3;2;42;1;36;2;0;TrialProc;701;1251;Po8_B;239;1345;1584;ListFischi1;0;;2;203;288802;15;13;1368;290170;552;1;1368;1;349;399;816;1;1
TMS_Ibrahim;54;1;"<?xml version=""1.0""?>\n<Clock xmlns:dt=""urn:schemas-microsoft-com:datatypes""><Description dt:dt=""string"">E-Prime Primary Realtime Clock</Description><StartTime><Timestamp dt:dt=""int"">0</Timestamp><DateUtc dt:dt=""string"">2023-05-04T14:46:14Z</DateUtc></StartTime><FrequencyChanges><FrequencyChange><Frequency dt:dt=""r8"">3312871</Frequency><Timestamp dt:dt=""r8"">33575505169</Timestamp><Current dt:dt=""r8"">0</Current><DateUtc dt:dt=""string"">2023-05-04T14:46:14Z</DateUtc></FrequencyChange></FrequencyChanges></Clock>\n";TMS_Ibrahim-54-1;75.029;1.0.0.561;1;;-783599334;2.0.10.242;2.0.10.242;05/04/2023;04/05/2023 14:46;16:46:15;2.0.10.147;0;;-999999;41;31615;0;1;4204;35819;1;1;1;2;1;0;1;BlockProcFischi;BlockList;1;75;0;;-999999;33;36982;0;1;286;37268;1;1;1;1;ProcFischi1;ListBlockFischi;37;1;1;0;1;3;Po5_B;175;2;op;3;2;41;1;37;2;0;TrialProc;398;983;Po5_B;55;1530;1475;ListFischi1;0;;3;201;296281;13;13;1552;297833;736;1;1552;1;443;259;816;1;1
TMS_Ibrahim;54;1;"<?xml version=""1.0""?>\n<Clock xmlns:dt=""urn:schemas-microsoft-com:datatypes""><Description dt:dt=""string"">E-Prime Primary Realtime Clock</Description><StartTime><Timestamp dt:dt=""int"">0</Timestamp><DateUtc dt:dt=""string"">2023-05-04T14:46:14Z</DateUtc></StartTime><FrequencyChanges><FrequencyChange><Frequency dt:dt=""r8"">3312871</Frequency><Timestamp dt:dt=""r8"">33575505169</Timestamp><Current dt:dt=""r8"">0</Current><DateUtc dt:dt=""string"">2023-05-04T14:46:14Z</DateUtc></FrequencyChange></FrequencyChanges></Clock>\n";TMS_Ibrahim-54-1;75.029;1.0.0.561;1;;-783599334;2.0.10.242;2.0.10.242;05/04/2023;04/05/2023 14:46;16:46:15;2.0.10.147;0;;-999999;41;31615;0;1;4204;35819;1;1;1;2;1;0;1;BlockProcFischi;BlockList;1;75;0;;-999999;33;36982;0;1;286;37268;1;1;1;1;ProcFischi1;ListBlockFischi;38;1;2;0;0;5;Pr8_B;200;1;op;5;2;10;1;38;1;0;TrialProc;359;720;Pr8_B;19;1728;1746;ListFischi1;0;;2;203;303568;16;15;1753;305321;937;1;1753;1;1104;389;816;1;1
TMS_Ibrahim;54;1;"<?xml version=""1.0""?>\n<Clock xmlns:dt=""urn:schemas-microsoft-com:datatypes""><Description dt:dt=""string"">E-Prime Primary Realtime Clock</Description><StartTime><Timestamp dt:dt=""int"">0</Timestamp><DateUtc dt:dt=""string"">2023-05-04T14:46:14Z</DateUtc></StartTime><FrequencyChanges><FrequencyChange><Frequency dt:dt=""r8"">3312871</Frequency><Timestamp dt:dt=""r8"">33575505169</Timestamp><Current dt:dt=""r8"">0</Current><DateUtc dt:dt=""string"">2023-05-04T14:46:14Z</DateUtc></FrequencyChange></FrequencyChanges></Clock>\n";TMS_Ibrahim-54-1;75.029;1.0.0.561;1;;-783599334;2.0.10.242;2.0.10.242;05/04/2023;04/05/2023 14:46;16:46:15;2.0.10.147;0;;-999999;41;31615;0;1;4204;35819;1;1;1;2;1;0;1;BlockProcFischi;BlockList;1;75;0;;-999999;33;36982;0;1;286;37268;1;1;1;1;ProcFischi1;ListBlockFischi;39;0;1;0;0;5;Po4_B;;4;ug;3;2;51;1;39;4;1;TrialProc;468;1349;Po4_B;417;1304;1722;ListFischi1;0;;3;201;310817;18;13;1336;312153;648;1;1336;1;335;399;688;1;0
TMS_Ibrahim;54;1;"<?xml version=""1.0""?>\n<Clock xmlns:dt=""urn:schemas-microsoft-com:datatypes""><Description dt:dt=""string"">E-Prime Primary Realtime Clock</Description><StartTime><Timestamp dt:dt=""int"">0</Timestamp><DateUtc dt:dt=""string"">2023-05-04T14:46:14Z</DateUtc></StartTime><FrequencyChanges><FrequencyChange><Frequency dt:dt=""r8"">3312871</Frequency><Timestamp dt:dt=""r8"">33575505169</Timestamp><Current dt:dt=""r8"">0</Current><DateUtc dt:dt=""string"">2023-05-04T14:46:14Z</DateUtc></FrequencyChange></FrequencyChanges></Clock>\n";TMS_Ibrahim-54-1;75.029;1.0.0.561;1;;-783599334;2.0.10.242;2.0.10.242;05/04/2023;04/05/2023 14:46;16:46:15;2.0.10.147;0;;-999999;41;31615;0;1;4204;35819;1;1;1;2;1;0;1;BlockProcFischi;BlockList;1;75;0;;-999999;33;36982;0;1;286;37268;1;1;1;1;ProcFischi1;ListBlockFischi;40;1;1;0;0;5;Po8_B;125;4;ug;5;2;53;1;40;4;1;TrialProc;545;1252;Po8_B;54;1531;1585;ListFischi1;0;;2;203;318497;15;15;1560;320057;584;1;1560;1;522;406;976;1;1
TMS_Ibrahim;54;1;"<?xml version=""1.0""?>\n<Clock xmlns:dt=""urn:schemas-microsoft-com:datatypes""><Description dt:dt=""string"">E-Prime Primary Realtime Clock</Description><StartTime><Timestamp dt:dt=""int"">0</Timestamp><DateUtc dt:dt=""string"">2023-05-04T14:46:14Z</DateUtc></StartTime><FrequencyChanges><FrequencyChange><Frequency dt:dt=""r8"">3312871</Frequency><Timestamp dt:dt=""r8"">33575505169</Timestamp><Current dt:dt=""r8"">0</Current><DateUtc dt:dt=""string"">2023-05-04T14:46:14Z</DateUtc></FrequencyChange></FrequencyChanges></Clock>\n";TMS_Ibrahim-54-1;75.029;1.0.0.561;1;;-783599334;2.0.10.242;2.0.10.242;05/04/2023;04/05/2023 14:46;16:46:15;2.0.10.147;0;;-999999;41;31615;0;1;4204;35819;1;1;1;2;1;0;1;BlockProcFischi;BlockList;1;75;0;;-999999;33;36982;0;1;286;37268;1;1;1;1;ProcFischi1;ListBlockFischi;41;1;2;0;0;5;Pr4_B;175;1;op;5;2;8;1;41;1;0;TrialProc;504;680;Pr4_B;129;1382;1253;ListFischi1;0;;2;201;325772;17;15;1404;327176;380;1;1404;1;666;564;1024;1;1
TMS_Ibrahim;54;1;"<?xml version=""1.0""?>\n<Clock xmlns:dt=""urn:schemas-microsoft-com:datatypes""><Description dt:dt=""string"">E-Prime Primary Realtime Clock</Description><StartTime><Timestamp dt:dt=""int"">0</Timestamp><DateUtc dt:dt=""string"">2023-05-04T14:46:14Z</DateUtc></StartTime><FrequencyChanges><FrequencyChange><Frequency dt:dt=""r8"">3312871</Frequency><Timestamp dt:dt=""r8"">33575505169</Timestamp><Current dt:dt=""r8"">0</Current><DateUtc dt:dt=""string"">2023-05-04T14:46:14Z</DateUtc></FrequencyChange></FrequencyChanges></Clock>\n";TMS_Ibrahim-54-1;75.029;1.0.0.561;1;;-783599334;2.0.10.242;2.0.10.242;05/04/2023;04/05/2023 14:46;16:46:15;2.0.10.147;0;;-999999;41;31615;0;1;4204;35819;1;1;1;2;1;0;1;BlockProcFischi;BlockList;1;75;0;;-999999;33;36982;0;1;286;37268;1;1;1;1;ProcFischi1;ListBlockFischi;42;1;2;0;0;5;Pr5_B;150;1;op;5;2;14;1;42;1;0;TrialProc;566;670;Pr5_B;140;1409;1269;ListFischi1;0;;2;203;333140;6;15;1444;334584;500;1;1444;1;440;549;944;1;1
TMS_Ibrahim;54;1;"<?xml version=""1.0""?>\n<Clock xmlns:dt=""urn:schemas-microsoft-com:datatypes""><Description dt:dt=""string"">E-Prime Primary Realtime Clock</Description><StartTime><Timestamp dt:dt=""int"">0</Timestamp><DateUtc dt:dt=""string"">2023-05-04T14:46:14Z</DateUtc></StartTime><FrequencyChanges><FrequencyChange><Frequency dt:dt=""r8"">3312871</Frequency><Timestamp dt:dt=""r8"">33575505169</Timestamp><Current dt:dt=""r8"">0</Current><DateUtc dt:dt=""string"">2023-05-04T14:46:14Z</DateUtc></FrequencyChange></FrequencyChanges></Clock>\n";TMS_Ibrahim-54-1;75.029;1.0.0.561;1;;-783599334;2.0.10.242;2.0.10.242;05/04/2023;04/05/2023 14:46;16:46:15;2.0.10.147;0;;-999999;41;31615;0;1;4204;35819;1;1;1;2;1;0;1;BlockProcFischi;BlockList;1;75;0;;-999999;33;36982;0;1;286;37268;1;1;1;1;ProcFischi1;ListBlockFischi;43;1;1;0;0;3;Po3_B;150;2;op;3;2;44;1;43;2;0;TrialProc;493;1320;Po3_B;200;1388;1588;ListFischi1;0;;3;201;340352;18;13;1416;341768;712;1;1416;1;407;321;704;1;1
TMS_Ibrahim;54;1;"<?xml version=""1.0""?>\n<Clock xmlns:dt=""urn:schemas-microsoft-com:datatypes""><Description dt:dt=""string"">E-Prime Primary Realtime Clock</Description><StartTime><Timestamp dt:dt=""int"">0</Timestamp><DateUtc dt:dt=""string"">2023-05-04T14:46:14Z</DateUtc></StartTime><FrequencyChanges><FrequencyChange><Frequency dt:dt=""r8"">3312871</Frequency><Timestamp dt:dt=""r8"">33575505169</Timestamp><Current dt:dt=""r8"">0</Current><DateUtc dt:dt=""string"">2023-05-04T14:46:14Z</DateUtc></FrequencyChange></FrequencyChanges></Clock>\n";TMS_Ibrahim-54-1;75.029;1.0.0.561;1;;-783599334;2.0.10.242;2.0.10.242;05/04/2023;04/05/2023 14:46;16:46:15;2.0.10.147;0;;-999999;41;31615;0;1;4204;35819;1;1;1;2;1;0;1;BlockProcFischi;BlockList;1;75;0;;-999999;33;36982;0;1;286;37268;1;1;1;1;ProcFischi1;ListBlockFischi;44;1;1;0;1;3;Po4_B;150;2;op;3;2;40;1;44;2;0;TrialProc;518;1337;Po4_B;385;1327;1711;ListFischi1;0;;2;203;348012;8;13;1356;349368;476;1;1356;1;237;242;880;1;1
TMS_Ibrahim;54;1;"<?xml version=""1.0""?>\n<Clock xmlns:dt=""urn:schemas-microsoft-com:datatypes""><Description dt:dt=""string"">E-Prime Primary Realtime Clock</Description><StartTime><Timestamp dt:dt=""int"">0</Timestamp><DateUtc dt:dt=""string"">2023-05-04T14:46:14Z</DateUtc></StartTime><FrequencyChanges><FrequencyChange><Frequency dt:dt=""r8"">3312871</Frequency><Timestamp dt:dt=""r8"">33575505169</Timestamp><Current dt:dt=""r8"">0</Current><DateUtc dt:dt=""string"">2023-05-04T14:46:14Z</DateUtc></FrequencyChange></FrequencyChanges></Clock>\n";TMS_Ibrahim-54-1;75.029;1.0.0.561;1;;-783599334;2.0.10.242;2.0.10.242;05/04/2023;04/05/2023 14:46;16:46:15;2.0.10.147;0;;-999999;41;31615;0;1;4204;35819;1;1;1;2;1;0;1;BlockProcFischi;BlockList;1;75;0;;-999999;33;36982;0;1;286;37268;1;1;1;1;ProcFischi1;ListBlockFischi;45;1;2;0;0;3;Pr3_B;75;3;ug;3;2;28;1;45;3;1;TrialProc;847;722;Pr3_B;88;1634;1721;ListFischi1;0;;2;201;355546;18;13;1661;357207;541;1;1661;1;681;275;1120;1;1
TMS_Ibrahim;54;1;"<?xml version=""1.0""?>\n<Clock xmlns:dt=""urn:schemas-microsoft-com:datatypes""><Description dt:dt=""string"">E-Prime Primary Realtime Clock</Description><StartTime><Timestamp dt:dt=""int"">0</Timestamp><DateUtc dt:dt=""string"">2023-05-04T14:46:14Z</DateUtc></StartTime><FrequencyChanges><FrequencyChange><Frequency dt:dt=""r8"">3312871</Frequency><Timestamp dt:dt=""r8"">33575505169</Timestamp><Current dt:dt=""r8"">0</Current><DateUtc dt:dt=""string"">2023-05-04T14:46:14Z</DateUtc></FrequencyChange></FrequencyChanges></Clock>\n";TMS_Ibrahim-54-1;75.029;1.0.0.561;1;;-783599334;2.0.10.242;2.0.10.242;05/04/2023;04/05/2023 14:46;16:46:15;2.0.10.147;0;;-999999;41;31615;0;1;4204;35819;1;1;1;2;1;0;1;BlockProcFischi;BlockList;1;75;0;;-999999;33;36982;0;1;286;37268;1;1;1;1;ProcFischi1;ListBlockFischi;46;1;2;0;0;5;Pr2_B;150;1;op;5;2;1;1;46;1;0;TrialProc;617;723;Pr2_B;277;1534;1256;ListFischi1;0;;2;203;362970;18;15;1565;364535;349;1;1565;1;601;402;1216;1;1
TMS_Ibrahim;54;1;"<?xml version=""1.0""?>\n<Clock xmlns:dt=""urn:schemas-microsoft-com:datatypes""><Description dt:dt=""string"">E-Prime Primary Realtime Clock</Description><StartTime><Timestamp dt:dt=""int"">0</Timestamp><DateUtc dt:dt=""string"">2023-05-04T14:46:14Z</DateUtc></StartTime><FrequencyChanges><FrequencyChange><Frequency dt:dt=""r8"">3312871</Frequency><Timestamp dt:dt=""r8"">33575505169</Timestamp><Current dt:dt=""r8"">0</Current><DateUtc dt:dt=""string"">2023-05-04T14:46:14Z</DateUtc></FrequencyChange></FrequencyChanges></Clock>\n";TMS_Ibrahim-54-1;75.029;1.0.0.561;1;;-783599334;2.0.10.242;2.0.10.242;05/04/2023;04/05/2023 14:46;16:46:15;2.0.10.147;0;;-999999;41;31615;0;1;4204;35819;1;1;1;2;1;0;1;BlockProcFischi;BlockList;1;75;0;;-999999;33;36982;0;1;286;37268;1;1;1;1;ProcFischi1;ListBlockFischi;47;1;2;0;1;5;Pr8_B;150;1;op;5;2;5;1;47;1;0;TrialProc;786;718;Pr8_B;55;1690;1745;ListFischi1;0;;3;201;369956;16;15;1715;371671;451;1;1715;1;387;243;1264;1;1
TMS_Ibrahim;54;1;"<?xml version=""1.0""?>\n<Clock xmlns:dt=""urn:schemas-microsoft-com:datatypes""><Description dt:dt=""string"">E-Prime Primary Realtime Clock</Description><StartTime><Timestamp dt:dt=""int"">0</Timestamp><DateUtc dt:dt=""string"">2023-05-04T14:46:14Z</DateUtc></StartTime><FrequencyChanges><FrequencyChange><Frequency dt:dt=""r8"">3312871</Frequency><Timestamp dt:dt=""r8"">33575505169</Timestamp><Current dt:dt=""r8"">0</Current><DateUtc dt:dt=""string"">2023-05-04T14:46:14Z</DateUtc></FrequencyChange></FrequencyChanges></Clock>\n";TMS_Ibrahim-54-1;75.029;1.0.0.561;1;;-783599334;2.0.10.242;2.0.10.242;05/04/2023;04/05/2023 14:46;16:46:15;2.0.10.147;0;;-999999;41;31615;0;1;4204;35819;1;1;1;2;1;0;1;BlockProcFischi;BlockList;1;75;0;;-999999;33;36982;0;1;286;37268;1;1;1;1;ProcFischi1;ListBlockFischi;48;1;1;0;2;3;Po4_B;150;2;op;3;2;45;1;48;2;0;TrialProc;856;1342;Po4_B;273;1442;1715;ListFischi1;0;;2;203;377144;11;13;1471;378615;303;1;1471;1;696;241;1168;1;1
TMS_Ibrahim;54;1;"<?xml version=""1.0""?>\n<Clock xmlns:dt=""urn:schemas-microsoft-com:datatypes""><Description dt:dt=""string"">E-Prime Primary Realtime Clock</Description><StartTime><Timestamp dt:dt=""int"">0</Timestamp><DateUtc dt:dt=""string"">2023-05-04T14:46:14Z</DateUtc></StartTime><FrequencyChanges><FrequencyChange><Frequency dt:dt=""r8"">3312871</Frequency><Timestamp dt:dt=""r8"">33575505169</Timestamp><Current dt:dt=""r8"">0</Current><DateUtc dt:dt=""string"">2023-05-04T14:46:14Z</DateUtc></FrequencyChange></FrequencyChanges></Clock>\n";TMS_Ibrahim-54-1;75.029;1.0.0.561;1;;-783599334;2.0.10.242;2.0.10.242;05/04/2023;04/05/2023 14:46;16:46:15;2.0.10.147;0;;-999999;41;31615;0;1;4204;35819;1;1;1;2;1;0;1;BlockProcFischi;BlockList;1;75;0;;-999999;33;36982;0;1;286;37268;1;1;1;1;ProcFischi1;ListBlockFischi;49;1;2;0;0;5;Pr3_B;125;1;op;5;2;7;1;49;1;0;TrialProc;754;712;Pr3_B;30;1680;1711;ListFischi1;0;;2;207;384904;8;15;1710;386614;846;1;1710;1;548;441;864;1;1
TMS_Ibrahim;54;1;"<?xml version=""1.0""?>\n<Clock xmlns:dt=""urn:schemas-microsoft-com:datatypes""><Description dt:dt=""string"">E-Prime Primary Realtime Clock</Description><StartTime><Timestamp dt:dt=""int"">0</Timestamp><DateUtc dt:dt=""string"">2023-05-04T14:46:14Z</DateUtc></StartTime><FrequencyChanges><FrequencyChange><Frequency dt:dt=""r8"">3312871</Frequency><Timestamp dt:dt=""r8"">33575505169</Timestamp><Current dt:dt=""r8"">0</Current><DateUtc dt:dt=""string"">2023-05-04T14:46:14Z</DateUtc></FrequencyChange></FrequencyChanges></Clock>\n";TMS_Ibrahim-54-1;75.029;1.0.0.561;1;;-783599334;2.0.10.242;2.0.10.242;05/04/2023;04/05/2023 14:46;16:46:15;2.0.10.147;0;;-999999;41;31615;0;1;4204;35819;1;1;1;2;1;0;1;BlockProcFischi;BlockList;1;75;0;;-999999;33;36982;0;1;286;37268;1;1;1;1;ProcFischi1;ListBlockFischi;50;1;2;0;0;5;Pr5_B;100;1;op;5;2;9;1;50;1;0;TrialProc;426;675;Pr5_B;176;1452;1276;ListFischi1;0;;2;201;391965;11;15;1481;393446;697;1;1481;1;1830;316;784;1;1
TMS_Ibrahim;54;1;"<?xml version=""1.0""?>\n<Clock xmlns:dt=""urn:schemas-microsoft-com:datatypes""><Description dt:dt=""string"">E-Prime Primary Realtime Clock</Description><StartTime><Timestamp dt:dt=""int"">0</Timestamp><DateUtc dt:dt=""string"">2023-05-04T14:46:14Z</DateUtc></StartTime><FrequencyChanges><FrequencyChange><Frequency dt:dt=""r8"">3312871</Frequency><Timestamp dt:dt=""r8"">33575505169</Timestamp><Current dt:dt=""r8"">0</Current><DateUtc dt:dt=""string"">2023-05-04T14:46:14Z</DateUtc></FrequencyChange></FrequencyChanges></Clock>\n";TMS_Ibrahim-54-1;75.029;1.0.0.561;1;;-783599334;2.0.10.242;2.0.10.242;05/04/2023;04/05/2023 14:46;16:46:15;2.0.10.147;0;;-999999;41;31615;0;1;4204;35819;1;1;1;2;1;0;1;BlockProcFischi;BlockList;1;75;0;;-999999;33;36982;0;1;286;37268;1;1;1;1;ProcFischi1;ListBlockFischi;51;1;2;0;0;3;Pr4_B;75;3;ug;3;2;19;1;51;3;1;TrialProc;430;677;Pr4_B;61;1311;1250;ListFischi1;0;;2;203;399147;13;133;1516;400663;524;1;1339;1;209;436;815;1;1
TMS_Ibrahim;54;1;"<?xml version=""1.0""?>\n<Clock xmlns:dt=""urn:schemas-microsoft-com:datatypes""><Description dt:dt=""string"">E-Prime Primary Realtime Clock</Description><StartTime><Timestamp dt:dt=""int"">0</Timestamp><DateUtc dt:dt=""string"">2023-05-04T14:46:14Z</DateUtc></StartTime><FrequencyChanges><FrequencyChange><Frequency dt:dt=""r8"">3312871</Frequency><Timestamp dt:dt=""r8"">33575505169</Timestamp><Current dt:dt=""r8"">0</Current><DateUtc dt:dt=""string"">2023-05-04T14:46:14Z</DateUtc></FrequencyChange></FrequencyChanges></Clock>\n";TMS_Ibrahim-54-1;75.029;1.0.0.561;1;;-783599334;2.0.10.242;2.0.10.242;05/04/2023;04/05/2023 14:46;16:46:15;2.0.10.147;0;;-999999;41;31615;0;1;4204;35819;1;1;1;2;1;0;1;BlockProcFischi;BlockList;1;75;0;;-999999;33;36982;0;1;286;37268;1;1;1;1;ProcFischi1;ListBlockFischi;52;1;2;0;0;3;Pr2_B;75;3;ug;3;2;27;1;52;3;1;TrialProc;458;718;Pr2_B;146;1397;1251;ListFischi1;0;;3;201;406196;15;13;1426;407622;402;1;1426;1;313;368;1024;1;1
TMS_Ibrahim;54;1;"<?xml version=""1.0""?>\n<Clock xmlns:dt=""urn:schemas-microsoft-com:datatypes""><Description dt:dt=""string"">E-Prime Primary Realtime Clock</Description><StartTime><Timestamp dt:dt=""int"">0</Timestamp><DateUtc dt:dt=""string"">2023-05-04T14:46:14Z</DateUtc></StartTime><FrequencyChanges><FrequencyChange><Frequency dt:dt=""r8"">3312871</Frequency><Timestamp dt:dt=""r8"">33575505169</Timestamp><Current dt:dt=""r8"">0</Current><DateUtc dt:dt=""string"">2023-05-04T14:46:14Z</DateUtc></FrequencyChange></FrequencyChanges></Clock>\n";TMS_Ibrahim-54-1;75.029;1.0.0.561;1;;-783599334;2.0.10.242;2.0.10.242;05/04/2023;04/05/2023 14:46;16:46:15;2.0.10.147;0;;-999999;41;31615;0;1;4204;35819;1;1;1;2;1;0;1;BlockProcFischi;BlockList;1;75;0;;-999999;33;36982;0;1;286;37268;1;1;1;1;ProcFischi1;ListBlockFischi;53;1;2;0;1;3;Pr5_B;75;3;ug;3;2;25;1;53;3;1;TrialProc;427;673;Pr5_B;49;1323;1274;ListFischi1;0;;2;203;413077;11;13;1345;414422;545;1;1345;1;606;258;800;1;1
TMS_Ibrahim;54;1;"<?xml version=""1.0""?>\n<Clock xmlns:dt=""urn:schemas-microsoft-com:datatypes""><Description dt:dt=""string"">E-Prime Primary Realtime Clock</Description><StartTime><Timestamp dt:dt=""int"">0</Timestamp><DateUtc dt:dt=""string"">2023-05-04T14:46:14Z</DateUtc></StartTime><FrequencyChanges><FrequencyChange><Frequency dt:dt=""r8"">3312871</Frequency><Timestamp dt:dt=""r8"">33575505169</Timestamp><Current dt:dt=""r8"">0</Current><DateUtc dt:dt=""string"">2023-05-04T14:46:14Z</DateUtc></FrequencyChange></FrequencyChanges></Clock>\n";TMS_Ibrahim-54-1;75.029;1.0.0.561;1;;-783599334;2.0.10.242;2.0.10.242;05/04/2023;04/05/2023 14:46;16:46:15;2.0.10.147;0;;-999999;41;31615;0;1;4204;35819;1;1;1;2;1;0;1;BlockProcFischi;BlockList;1;75;0;;-999999;33;36982;0;1;286;37268;1;1;1;1;ProcFischi1;ListBlockFischi;54;1;2;0;1;5;Pr4_B;100;1;op;5;2;3;1;54;1;0;TrialProc;482;683;Pr4_B;26;1282;1256;ListFischi1;0;;3;201;420426;19;15;1307;421733;235;1;1307;1;226;409;1072;1;1
TMS_Ibrahim;54;1;"<?xml version=""1.0""?>\n<Clock xmlns:dt=""urn:schemas-microsoft-com:datatypes""><Description dt:dt=""string"">E-Prime Primary Realtime Clock</Description><StartTime><Timestamp dt:dt=""int"">0</Timestamp><DateUtc dt:dt=""string"">2023-05-04T14:46:14Z</DateUtc></StartTime><FrequencyChanges><FrequencyChange><Frequency dt:dt=""r8"">3312871</Frequency><Timestamp dt:dt=""r8"">33575505169</Timestamp><Current dt:dt=""r8"">0</Current><DateUtc dt:dt=""string"">2023-05-04T14:46:14Z</DateUtc></FrequencyChange></FrequencyChanges></Clock>\n";TMS_Ibrahim-54-1;75.029;1.0.0.561;1;;-783599334;2.0.10.242;2.0.10.242;05/04/2023;04/05/2023 14:46;16:46:15;2.0.10.147;0;;-999999;41;31615;0;1;4204;35819;1;1;1;2;1;0;1;BlockProcFischi;BlockList;1;75;0;;-999999;33;36982;0;1;286;37268;1;1;1;1;ProcFischi1;ListBlockFischi;55;1;2;0;0;3;Pr2_B;50;3;ug;3;2;22;1;55;3;1;TrialProc;395;710;Pr2_B;76;1319;1243;ListFischi1;0;;2;203;427781;8;13;1344;429125;752;1;1344;1;453;365;592;1;1
TMS_Ibrahim;54;1;"<?xml version=""1.0""?>\n<Clock xmlns:dt=""urn:schemas-microsoft-com:datatypes""><Description dt:dt=""string"">E-Prime Primary Realtime Clock</Description><StartTime><Timestamp dt:dt=""int"">0</Timestamp><DateUtc dt:dt=""string"">2023-05-04T14:46:14Z</DateUtc></StartTime><FrequencyChanges><FrequencyChange><Frequency dt:dt=""r8"">3312871</Frequency><Timestamp dt:dt=""r8"">33575505169</Timestamp><Current dt:dt=""r8"">0</Current><DateUtc dt:dt=""string"">2023-05-04T14:46:14Z</DateUtc></FrequencyChange></FrequencyChanges></Clock>\n";TMS_Ibrahim-54-1;75.029;1.0.0.561;1;;-783599334;2.0.10.242;2.0.10.242;05/04/2023;04/05/2023 14:46;16:46:15;2.0.10.147;0;;-999999;41;31615;0;1;4204;35819;1;1;1;2;1;0;1;BlockProcFischi;BlockList;1;75;0;;-999999;33;36982;0;1;286;37268;1;1;1;1;ProcFischi1;ListBlockFischi;56;1;1;0;0;5;Po4_B;100;4;ug;5;2;56;1;56;4;1;TrialProc;392;1346;Po4_B;484;1235;1719;ListFischi1;0;;2;201;435051;15;15;1258;436309;458;1;1258;1;296;472;800;1;1
TMS_Ibrahim;54;1;"<?xml version=""1.0""?>\n<Clock xmlns:dt=""urn:schemas-microsoft-com:datatypes""><Description dt:dt=""string"">E-Prime Primary Realtime Clock</Description><StartTime><Timestamp dt:dt=""int"">0</Timestamp><DateUtc dt:dt=""string"">2023-05-04T14:46:14Z</DateUtc></StartTime><FrequencyChanges><FrequencyChange><Frequency dt:dt=""r8"">3312871</Frequency><Timestamp dt:dt=""r8"">33575505169</Timestamp><Current dt:dt=""r8"">0</Current><DateUtc dt:dt=""string"">2023-05-04T14:46:14Z</DateUtc></FrequencyChange></FrequencyChanges></Clock>\n";TMS_Ibrahim-54-1;75.029;1.0.0.561;1;;-783599334;2.0.10.242;2.0.10.242;05/04/2023;04/05/2023 14:46;16:46:15;2.0.10.147;0;;-999999;41;31615;0;1;4204;35819;1;1;1;2;1;0;1;BlockProcFischi;BlockList;1;75;0;;-999999;33;36982;0;1;286;37268;1;1;1;1;ProcFischi1;ListBlockFischi;57;0;2;1;1;3;Prmod_B;;3;ug;5;2;31;1;57;3;1;TrialProc;485;1317;Prmod_B;291;1358;1650;ListFischi1;0;;2;203;442770;13;153;2019;444789;579;1;1379;1;404;203;800;1;0
TMS_Ibrahim;54;1;"<?xml version=""1.0""?>\n<Clock xmlns:dt=""urn:schemas-microsoft-com:datatypes""><Description dt:dt=""string"">E-Prime Primary Realtime Clock</Description><StartTime><Timestamp dt:dt=""int"">0</Timestamp><DateUtc dt:dt=""string"">2023-05-04T14:46:14Z</DateUtc></StartTime><FrequencyChanges><FrequencyChange><Frequency dt:dt=""r8"">3312871</Frequency><Timestamp dt:dt=""r8"">33575505169</Timestamp><Current dt:dt=""r8"">0</Current><DateUtc dt:dt=""string"">2023-05-04T14:46:14Z</DateUtc></FrequencyChange></FrequencyChanges></Clock>\n";TMS_Ibrahim-54-1;75.029;1.0.0.561;1;;-783599334;2.0.10.242;2.0.10.242;05/04/2023;04/05/2023 14:46;16:46:15;2.0.10.147;0;;-999999;41;31615;0;1;4204;35819;1;1;1;2;1;0;1;BlockProcFischi;BlockList;1;75;0;;-999999;33;36982;0;1;286;37268;1;1;1;1;ProcFischi1;ListBlockFischi;58;1;1;0;0;3;Po4_B;175;2;op;3;2;35;1;58;2;0;TrialProc;553;1347;Po4_B;305;1416;1721;ListFischi1;0;;2;201;449817;17;13;1435;451252;507;1;1435;1;375;581;928;1;1
TMS_Ibrahim;54;1;"<?xml version=""1.0""?>\n<Clock xmlns:dt=""urn:schemas-microsoft-com:datatypes""><Description dt:dt=""string"">E-Prime Primary Realtime Clock</Description><StartTime><Timestamp dt:dt=""int"">0</Timestamp><DateUtc dt:dt=""string"">2023-05-04T14:46:14Z</DateUtc></StartTime><FrequencyChanges><FrequencyChange><Frequency dt:dt=""r8"">3312871</Frequency><Timestamp dt:dt=""r8"">33575505169</Timestamp><Current dt:dt=""r8"">0</Current><DateUtc dt:dt=""string"">2023-05-04T14:46:14Z</DateUtc></FrequencyChange></FrequencyChanges></Clock>\n";TMS_Ibrahim-54-1;75.029;1.0.0.561;1;;-783599334;2.0.10.242;2.0.10.242;05/04/2023;04/05/2023 14:46;16:46:15;2.0.10.147;0;;-999999;41;31615;0;1;4204;35819;1;1;1;2;1;0;1;BlockProcFischi;BlockList;1;75;0;;-999999;33;36982;0;1;286;37268;1;1;1;1;ProcFischi1;ListBlockFischi;59;1;1;0;1;3;Po8_B;175;2;op;3;2;37;1;59;2;0;TrialProc;520;1254;Po8_B;188;1398;1587;ListFischi1;0;;2;203;457453;18;13;1431;458884;519;1;1431;1;319;272;912;1;1
TMS_Ibrahim;54;1;"<?xml version=""1.0""?>\n<Clock xmlns:dt=""urn:schemas-microsoft-com:datatypes""><Description dt:dt=""string"">E-Prime Primary Realtime Clock</Description><StartTime><Timestamp dt:dt=""int"">0</Timestamp><DateUtc dt:dt=""string"">2023-05-04T14:46:14Z</DateUtc></StartTime><FrequencyChanges><FrequencyChange><Frequency dt:dt=""r8"">3312871</Frequency><Timestamp dt:dt=""r8"">33575505169</Timestamp><Current dt:dt=""r8"">0</Current><DateUtc dt:dt=""string"">2023-05-04T14:46:14Z</DateUtc></FrequencyChange></FrequencyChanges></Clock>\n";TMS_Ibrahim-54-1;75.029;1.0.0.561;1;;-783599334;2.0.10.242;2.0.10.242;05/04/2023;04/05/2023 14:46;16:46:15;2.0.10.147;0;;-999999;41;31615;0;1;4204;35819;1;1;1;2;1;0;1;BlockProcFischi;BlockList;1;75;0;;-999999;33;36982;0;1;286;37268;1;1;1;1;ProcFischi1;ListBlockFischi;60;0;1;0;1;5;Po3_B;;4;ug;3;2;50;1;60;4;1;TrialProc;1033;1318;Po3_B;69;1516;1585;ListFischi1;0;;2;201;464907;14;131;4105;469012;489;1;1545;1;287;341;1056;1;0
TMS_Ibrahim;54;1;"<?xml version=""1.0""?>\n<Clock xmlns:dt=""urn:schemas-microsoft-com:datatypes""><Description dt:dt=""string"">E-Prime Primary Realtime Clock</Description><StartTime><Timestamp dt:dt=""int"">0</Timestamp><DateUtc dt:dt=""string"">2023-05-04T14:46:14Z</DateUtc></StartTime><FrequencyChanges><FrequencyChange><Frequency dt:dt=""r8"">3312871</Frequency><Timestamp dt:dt=""r8"">33575505169</Timestamp><Current dt:dt=""r8"">0</Current><DateUtc dt:dt=""string"">2023-05-04T14:46:14Z</DateUtc></FrequencyChange></FrequencyChanges></Clock>\n";TMS_Ibrahim-54-1;75.029;1.0.0.561;1;;-783599334;2.0.10.242;2.0.10.242;05/04/2023;04/05/2023 14:46;16:46:15;2.0.10.147;0;;-999999;41;31615;0;1;4204;35819;1;1;1;2;1;0;1;BlockProcFischi;BlockList;1;75;0;;-999999;33;36982;0;1;286;37268;1;1;1;1;ProcFischi1;ListBlockFischi;61;1;1;0;1;3;Po2_B;175;2;op;3;2;33;1;61;2;0;TrialProc;754;1580;Po2_B;101;1907;1805;ListFischi1;0;;2;203;472230;8;13;1934;474164;958;1;1934;1;362;526;976;1;1
TMS_Ibrahim;54;1;"<?xml version=""1.0""?>\n<Clock xmlns:dt=""urn:schemas-microsoft-com:datatypes""><Description dt:dt=""string"">E-Prime Primary Realtime Clock</Description><StartTime><Timestamp dt:dt=""int"">0</Timestamp><DateUtc dt:dt=""string"">2023-05-04T14:46:14Z</DateUtc></StartTime><FrequencyChanges><FrequencyChange><Frequency dt:dt=""r8"">3312871</Frequency><Timestamp dt:dt=""r8"">33575505169</Timestamp><Current dt:dt=""r8"">0</Current><DateUtc dt:dt=""string"">2023-05-04T14:46:14Z</DateUtc></FrequencyChange></FrequencyChanges></Clock>\n";TMS_Ibrahim-54-1;75.029;1.0.0.561;1;;-783599334;2.0.10.242;2.0.10.242;05/04/2023;04/05/2023 14:46;16:46:15;2.0.10.147;0;;-999999;41;31615;0;1;4204;35819;1;1;1;2;1;0;1;BlockProcFischi;BlockList;1;75;0;;-999999;33;36982;0;1;286;37268;1;1;1;1;ProcFischi1;ListBlockFischi;62;1;2;0;1;3;Pr4_B;50;3;ug;3;2;29;1;62;3;1;TrialProc;557;677;Pr4_B;14;1265;1251;ListFischi1;0;;3;201;479447;15;13;1293;480740;396;1;1293;1;335;341;897;1;1
TMS_Ibrahim;54;1;"<?xml version=""1.0""?>\n<Clock xmlns:dt=""urn:schemas-microsoft-com:datatypes""><Description dt:dt=""string"">E-Prime Primary Realtime Clock</Description><StartTime><Timestamp dt:dt=""int"">0</Timestamp><DateUtc dt:dt=""string"">2023-05-04T14:46:14Z</DateUtc></StartTime><FrequencyChanges><FrequencyChange><Frequency dt:dt=""r8"">3312871</Frequency><Timestamp dt:dt=""r8"">33575505169</Timestamp><Current dt:dt=""r8"">0</Current><DateUtc dt:dt=""string"">2023-05-04T14:46:14Z</DateUtc></FrequencyChange></FrequencyChanges></Clock>\n";TMS_Ibrahim-54-1;75.029;1.0.0.561;1;;-783599334;2.0.10.242;2.0.10.242;05/04/2023;04/05/2023 14:46;16:46:15;2.0.10.147;0;;-999999;41;31615;0;1;4204;35819;1;1;1;2;1;0;1;BlockProcFischi;BlockList;1;75;0;;-999999;33;36982;0;1;286;37268;1;1;1;1;ProcFischi1;ListBlockFischi;63;1;2;0;0;3;Pr5_B;25;3;ug;3;2;30;1;63;3;1;TrialProc;556;681;Pr5_B;44;1235;1280;ListFischi1;0;;2;203;486590;16;13;1269;487859;438;1;1269;1;413;532;831;1;1
TMS_Ibrahim;54;1;"<?xml version=""1.0""?>\n<Clock xmlns:dt=""urn:schemas-microsoft-com:datatypes""><Description dt:dt=""string"">E-Prime Primary Realtime Clock</Description><StartTime><Timestamp dt:dt=""int"">0</Timestamp><DateUtc dt:dt=""string"">2023-05-04T14:46:14Z</DateUtc></StartTime><FrequencyChanges><FrequencyChange><Frequency dt:dt=""r8"">3312871</Frequency><Timestamp dt:dt=""r8"">33575505169</Timestamp><Current dt:dt=""r8"">0</Current><DateUtc dt:dt=""string"">2023-05-04T14:46:14Z</DateUtc></FrequencyChange></FrequencyChanges></Clock>\n";TMS_Ibrahim-54-1;75.029;1.0.0.561;1;;-783599334;2.0.10.242;2.0.10.242;05/04/2023;04/05/2023 14:46;16:46:15;2.0.10.147;0;;-999999;41;31615;0;1;4204;35819;1;1;1;2;1;0;1;BlockProcFischi;BlockList;1;75;0;;-999999;33;36982;0;1;286;37268;1;1;1;1;ProcFischi1;ListBlockFischi;64;1;2;0;0;5;Pr4_B;75;1;op;5;2;13;1;64;1;0;TrialProc;489;673;Pr4_B;123;1369;1246;ListFischi1;0;;3;201;493872;11;15;1395;495267;547;1;1395;1;478;550;848;1;1
TMS_Ibrahim;54;3;"<?xml version=""1.0""?>\n<Clock xmlns:dt=""urn:schemas-microsoft-com:datatypes""><Description dt:dt=""string"">E-Prime Primary Realtime Clock</Description><StartTime><Timestamp dt:dt=""int"">0</Timestamp><DateUtc dt:dt=""string"">2023-05-04T15:56:00Z</DateUtc></StartTime><FrequencyChanges><FrequencyChange><Frequency dt:dt=""r8"">3312871</Frequency><Timestamp dt:dt=""r8"">47442765892</Timestamp><Current dt:dt=""r8"">0</Current><DateUtc dt:dt=""string"">2023-05-04T15:56:00Z</DateUtc></FrequencyChange></FrequencyChanges></Clock>\n";TMS_Ibrahim-54-3;75.030;1.0.0.561;1;;198773229;2.0.10.242;2.0.10.242;05/04/2023;04/05/2023 15:56;17:56:01;2.0.10.147;0;;-999999;19;43594;0;1;793;44387;1;1;1;2;1;2;1;BlockProcFischi;BlockList;1;25;0;;-999999;8;46190;0;1;903;47093;1;1;1;1;ProcFischi1;ListBlockFischi;1;1;2;0;0;5;Pr8_B;250;1;op;5;2;10;1;1;1;0;TrialProc;1253;724;Pr8_B;147;1898;1750;ListFischi1;0;;3;203;51371;20;15;1933;53304;781;1;1933;1;814;385;1152;1;1
TMS_Ibrahim;54;3;"<?xml version=""1.0""?>\n<Clock xmlns:dt=""urn:schemas-microsoft-com:datatypes""><Description dt:dt=""string"">E-Prime Primary Realtime Clock</Description><StartTime><Timestamp dt:dt=""int"">0</Timestamp><DateUtc dt:dt=""string"">2023-05-04T15:56:00Z</DateUtc></StartTime><FrequencyChanges><FrequencyChange><Frequency dt:dt=""r8"">3312871</Frequency><Timestamp dt:dt=""r8"">47442765892</Timestamp><Current dt:dt=""r8"">0</Current><DateUtc dt:dt=""string"">2023-05-04T15:56:00Z</DateUtc></FrequencyChange></FrequencyChanges></Clock>\n";TMS_Ibrahim-54-3;75.030;1.0.0.561;1;;198773229;2.0.10.242;2.0.10.242;05/04/2023;04/05/2023 15:56;17:56:01;2.0.10.147;0;;-999999;19;43594;0;1;793;44387;1;1;1;2;1;2;1;BlockProcFischi;BlockList;1;25;0;;-999999;8;46190;0;1;903;47093;1;1;1;1;ProcFischi1;ListBlockFischi;2;1;1;0;0;3;Po3_B;250;2;op;3;2;39;1;2;2;0;TrialProc;1279;1319;Po3_B;250;1338;1587;ListFischi1;0;;2;208;58999;16;13;1361;60360;497;1;1361;1;589;423;864;1;1
TMS_Ibrahim;54;3;"<?xml version=""1.0""?>\n<Clock xmlns:dt=""urn:schemas-microsoft-com:datatypes""><Description dt:dt=""string"">E-Prime Primary Realtime Clock</Description><StartTime><Timestamp dt:dt=""int"">0</Timestamp><DateUtc dt:dt=""string"">2023-05-04T15:56:00Z</DateUtc></StartTime><FrequencyChanges><FrequencyChange><Frequency dt:dt=""r8"">3312871</Frequency><Timestamp dt:dt=""r8"">47442765892</Timestamp><Current dt:dt=""r8"">0</Current><DateUtc dt:dt=""string"">2023-05-04T15:56:00Z</DateUtc></FrequencyChange></FrequencyChanges></Clock>\n";TMS_Ibrahim-54-3;75.030;1.0.0.561;1;;198773229;2.0.10.242;2.0.10.242;05/04/2023;04/05/2023 15:56;17:56:01;2.0.10.147;0;;-999999;19;43594;0;1;793;44387;1;1;1;2;1;2;1;BlockProcFischi;BlockList;1;25;0;;-999999;8;46190;0;1;903;47093;1;1;1;1;ProcFischi1;ListBlockFischi;3;1;1;0;0;5;Po3_B;250;4;ug;5;2;50;1;3;4;1;TrialProc;1177;1312;Po3_B;59;1519;1577;ListFischi1;0;;1;201;66751;8;15;1544;68295;568;1;1544;1;579;496;976;1;1
TMS_Ibrahim;54;3;"<?xml version=""1.0""?>\n<Clock xmlns:dt=""urn:schemas-microsoft-com:datatypes""><Description dt:dt=""string"">E-Prime Primary Realtime Clock</Description><StartTime><Timestamp dt:dt=""int"">0</Timestamp><DateUtc dt:dt=""string"">2023-05-04T15:56:00Z</DateUtc></StartTime><FrequencyChanges><FrequencyChange><Frequency dt:dt=""r8"">3312871</Frequency><Timestamp dt:dt=""r8"">47442765892</Timestamp><Current dt:dt=""r8"">0</Current><DateUtc dt:dt=""string"">2023-05-04T15:56:00Z</DateUtc></FrequencyChange></FrequencyChanges></Clock>\n";TMS_Ibrahim-54-3;75.030;1.0.0.561;1;;198773229;2.0.10.242;2.0.10.242;05/04/2023;04/05/2023 15:56;17:56:01;2.0.10.147;0;;-999999;19;43594;0;1;793;44387;1;1;1;2;1;2;1;BlockProcFischi;BlockList;1;25;0;;-999999;8;46190;0;1;903;47093;1;1;1;1;ProcFischi1;ListBlockFischi;4;1;2;0;0;3;Pr8_B;250;3;ug;3;2;26;1;4;3;1;TrialProc;2076;716;Pr8_B;34;1777;1743;ListFischi1;0;;1;203;74570;12;13;1805;76375;397;1;1805;1;544;508;1408;1;1
TMS_Ibrahim;54;3;"<?xml version=""1.0""?>\n<Clock xmlns:dt=""urn:schemas-microsoft-com:datatypes""><Description dt:dt=""string"">E-Prime Primary Realtime Clock</Description><StartTime><Timestamp dt:dt=""int"">0</Timestamp><DateUtc dt:dt=""string"">2023-05-04T15:56:00Z</DateUtc></StartTime><FrequencyChanges><FrequencyChange><Frequency dt:dt=""r8"">3312871</Frequency><Timestamp dt:dt=""r8"">47442765892</Timestamp><Current dt:dt=""r8"">0</Current><DateUtc dt:dt=""string"">2023-05-04T15:56:00Z</DateUtc></FrequencyChange></FrequencyChanges></Clock>\n";TMS_Ibrahim-54-3;75.030;1.0.0.561;1;;198773229;2.0.10.242;2.0.10.242;05/04/2023;04/05/2023 15:56;17:56:01;2.0.10.147;0;;-999999;19;43594;0;1;793;44387;1;1;1;2;1;2;1;BlockProcFischi;BlockList;1;25;0;;-999999;8;46190;0;1;903;47093;1;1;1;1;ProcFischi1;ListBlockFischi;5;1;1;0;0;5;Po5_B;225;4;ug;5;2;62;1;5;4;1;TrialProc;1368;984;Po5_B;49;1428;1477;ListFischi1;0;;2;203;82913;13;15;1462;84375;790;1;1462;1;803;206;672;1;1
TMS_Ibrahim;54;3;"<?xml version=""1.0""?>\n<Clock xmlns:dt=""urn:schemas-microsoft-com:datatypes""><Description dt:dt=""string"">E-Prime Primary Realtime Clock</Description><StartTime><Timestamp dt:dt=""int"">0</Timestamp><DateUtc dt:dt=""string"">2023-05-04T15:56:00Z</DateUtc></StartTime><FrequencyChanges><FrequencyChange><Frequency dt:dt=""r8"">3312871</Frequency><Timestamp dt:dt=""r8"">47442765892</Timestamp><Current dt:dt=""r8"">0</Current><DateUtc dt:dt=""string"">2023-05-04T15:56:00Z</DateUtc></FrequencyChange></FrequencyChanges></Clock>\n";TMS_Ibrahim-54-3;75.030;1.0.0.561;1;;198773229;2.0.10.242;2.0.10.242;05/04/2023;04/05/2023 15:56;17:56:01;2.0.10.147;0;;-999999;19;43594;0;1;793;44387;1;1;1;2;1;2;1;BlockProcFischi;BlockList;1;25;0;;-999999;8;46190;0;1;903;47093;1;1;1;1;ProcFischi1;ListBlockFischi;6;0;2;1;0;3;Prmod_B;;3;ug;5;2;31;1;6;3;1;TrialProc;2018;1319;Prmod_B;363;1290;1653;ListFischi1;0;;1;201;90842;14;153;1773;92615;333;1;1309;1;774;579;976;1;0
TMS_Ibrahim;54;3;"<?xml version=""1.0""?>\n<Clock xmlns:dt=""urn:schemas-microsoft-com:datatypes""><Description dt:dt=""string"">E-Prime Primary Realtime Clock</Description><StartTime><Timestamp dt:dt=""int"">0</Timestamp><DateUtc dt:dt=""string"">2023-05-04T15:56:00Z</DateUtc></StartTime><FrequencyChanges><FrequencyChange><Frequency dt:dt=""r8"">3312871</Frequency><Timestamp dt:dt=""r8"">47442765892</Timestamp><Current dt:dt=""r8"">0</Current><DateUtc dt:dt=""string"">2023-05-04T15:56:00Z</DateUtc></FrequencyChange></FrequencyChanges></Clock>\n";TMS_Ibrahim-54-3;75.030;1.0.0.561;1;;198773229;2.0.10.242;2.0.10.242;05/04/2023;04/05/2023 15:56;17:56:01;2.0.10.147;0;;-999999;19;43594;0;1;793;44387;1;1;1;2;1;2;1;BlockProcFischi;BlockList;1;25;0;;-999999;8;46190;0;1;903;47093;1;1;1;1;ProcFischi1;ListBlockFischi;7;0;1;1;0;5;Pomod_B;;4;ug;3;2;63;1;7;4;1;TrialProc;2207;1316;Pomod_B;321;1356;1677;ListFischi1;0;;2;203;98387;13;135;2195;100582;371;1;1379;1;511;553;1008;1;0
TMS_Ibrahim;54;3;"<?xml version=""1.0""?>\n<Clock xmlns:dt=""urn:schemas-microsoft-com:datatypes""><Description dt:dt=""string"">E-Prime Primary Realtime Clock</Description><StartTime><Timestamp dt:dt=""int"">0</Timestamp><DateUtc dt:dt=""string"">2023-05-04T15:56:00Z</DateUtc></StartTime><FrequencyChanges><FrequencyChange><Frequency dt:dt=""r8"">3312871</Frequency><Timestamp dt:dt=""r8"">47442765892</Timestamp><Current dt:dt=""r8"">0</Current><DateUtc dt:dt=""string"">2023-05-04T15:56:00Z</DateUtc></FrequencyChange></FrequencyChanges></Clock>\n";TMS_Ibrahim-54-3;75.030;1.0.0.561;1;;198773229;2.0.10.242;2.0.10.242;05/04/2023;04/05/2023 15:56;17:56:01;2.0.10.147;0;;-999999;19;43594;0;1;793;44387;1;1;1;2;1;2;1;BlockProcFischi;BlockList;1;25;0;;-999999;8;46190;0;1;903;47093;1;1;1;1;ProcFischi1;ListBlockFischi;8;1;1;0;0;5;Po4_B;200;4;ug;5;2;61;1;8;4;1;TrialProc;1651;1345;Po4_B;376;1341;1718;ListFischi1;0;;3;201;105716;14;15;1362;107078;434;1;1362;1;360;257;928;1;1
TMS_Ibrahim;54;3;"<?xml version=""1.0""?>\n<Clock xmlns:dt=""urn:schemas-microsoft-com:datatypes""><Description dt:dt=""string"">E-Prime Primary Realtime Clock</Description><StartTime><Timestamp dt:dt=""int"">0</Timestamp><DateUtc dt:dt=""string"">2023-05-04T15:56:00Z</DateUtc></StartTime><FrequencyChanges><FrequencyChange><Frequency dt:dt=""r8"">3312871</Frequency><Timestamp dt:dt=""r8"">47442765892</Timestamp><Current dt:dt=""r8"">0</Current><DateUtc dt:dt=""string"">2023-05-04T15:56:00Z</DateUtc></FrequencyChange></FrequencyChanges></Clock>\n";TMS_Ibrahim-54-3;75.030;1.0.0.561;1;;198773229;2.0.10.242;2.0.10.242;05/04/2023;04/05/2023 15:56;17:56:01;2.0.10.147;0;;-999999;19;43594;0;1;793;44387;1;1;1;2;1;2;1;BlockProcFischi;BlockList;1;25;0;;-999999;8;46190;0;1;903;47093;1;1;1;1;ProcFischi1;ListBlockFischi;9;1;1;0;0;3;Po5_B;250;2;op;3;2;36;1;9;2;0;TrialProc;2378;980;Po5_B;135;1339;1474;ListFischi1;0;;2;203;114584;10;13;1358;115942;382;1;1358;1;560;320;976;1;1
TMS_Ibrahim;54;3;"<?xml version=""1.0""?>\n<Clock xmlns:dt=""urn:schemas-microsoft-com:datatypes""><Description dt:dt=""string"">E-Prime Primary Realtime Clock</Description><StartTime><Timestamp dt:dt=""int"">0</Timestamp><DateUtc dt:dt=""string"">2023-05-04T15:56:00Z</DateUtc></StartTime><FrequencyChanges><FrequencyChange><Frequency dt:dt=""r8"">3312871</Frequency><Timestamp dt:dt=""r8"">47442765892</Timestamp><Current dt:dt=""r8"">0</Current><DateUtc dt:dt=""string"">2023-05-04T15:56:00Z</DateUtc></FrequencyChange></FrequencyChanges></Clock>\n";TMS_Ibrahim-54-3;75.030;1.0.0.561;1;;198773229;2.0.10.242;2.0.10.242;05/04/2023;04/05/2023 15:56;17:56:01;2.0.10.147;0;;-999999;19;43594;0;1;793;44387;1;1;1;2;1;2;1;BlockProcFischi;BlockList;1;25;0;;-999999;8;46190;0;1;903;47093;1;1;1;1;ProcFischi1;ListBlockFischi;10;1;2;0;0;3;Pr2_B;225;3;ug;3;2;22;1;10;3;1;TrialProc;2671;719;Pr2_B;140;1113;1253;ListFischi1;0;;3;203;123147;17;13;1147;124294;315;1;1147;1;1185;414;832;1;1
TMS_Ibrahim;54;3;"<?xml version=""1.0""?>\n<Clock xmlns:dt=""urn:schemas-microsoft-com:datatypes""><Description dt:dt=""string"">E-Prime Primary Realtime Clock</Description><StartTime><Timestamp dt:dt=""int"">0</Timestamp><DateUtc dt:dt=""string"">2023-05-04T15:56:00Z</DateUtc></StartTime><FrequencyChanges><FrequencyChange><Frequency dt:dt=""r8"">3312871</Frequency><Timestamp dt:dt=""r8"">47442765892</Timestamp><Current dt:dt=""r8"">0</Current><DateUtc dt:dt=""string"">2023-05-04T15:56:00Z</DateUtc></FrequencyChange></FrequencyChanges></Clock>\n";TMS_Ibrahim-54-3;75.030;1.0.0.561;1;;198773229;2.0.10.242;2.0.10.242;05/04/2023;04/05/2023 15:56;17:56:01;2.0.10.147;0;;-999999;19;43594;0;1;793;44387;1;1;1;2;1;2;1;BlockProcFischi;BlockList;1;25;0;;-999999;8;46190;0;1;903;47093;1;1;1;1;ProcFischi1;ListBlockFischi;11;1;1;0;0;3;Po3_B;225;2;op;3;2;44;1;11;2;0;TrialProc;1927;1316;Po3_B;281;1302;1583;ListFischi1;0;;2;203;131215;12;13;1334;132549;312;1;1334;1;526;341;1022;1;1
TMS_Ibrahim;54;3;"<?xml version=""1.0""?>\n<Clock xmlns:dt=""urn:schemas-microsoft-com:datatypes""><Description dt:dt=""string"">E-Prime Primary Realtime Clock</Description><StartTime><Timestamp dt:dt=""int"">0</Timestamp><DateUtc dt:dt=""string"">2023-05-04T15:56:00Z</DateUtc></StartTime><FrequencyChanges><FrequencyChange><Frequency dt:dt=""r8"">3312871</Frequency><Timestamp dt:dt=""r8"">47442765892</Timestamp><Current dt:dt=""r8"">0</Current><DateUtc dt:dt=""string"">2023-05-04T15:56:00Z</DateUtc></FrequencyChange></FrequencyChanges></Clock>\n";TMS_Ibrahim-54-3;75.030;1.0.0.561;1;;198773229;2.0.10.242;2.0.10.242;05/04/2023;04/05/2023 15:56;17:56:01;2.0.10.147;0;;-999999;19;43594;0;1;793;44387;1;1;1;2;1;2;1;BlockProcFischi;BlockList;1;25;0;;-999999;8;46190;0;1;903;47093;1;1;1;1;ProcFischi1;ListBlockFischi;12;1;2;0;0;3;Pr3_B;200;3;ug;3;2;23;1;12;3;1;TrialProc;1286;716;Pr3_B;327;1388;1716;ListFischi1;0;;2;203;140318;12;13;1415;141733;471;1;1415;1;347;445;944;1;1
TMS_Ibrahim;54;3;"<?xml version=""1.0""?>\n<Clock xmlns:dt=""urn:schemas-microsoft-com:datatypes""><Description dt:dt=""string"">E-Prime Primary Realtime Clock</Description><StartTime><Timestamp dt:dt=""int"">0</Timestamp><DateUtc dt:dt=""string"">2023-05-04T15:56:00Z</DateUtc></StartTime><FrequencyChanges><FrequencyChange><Frequency dt:dt=""r8"">3312871</Frequency><Timestamp dt:dt=""r8"">47442765892</Timestamp><Current dt:dt=""r8"">0</Current><DateUtc dt:dt=""string"">2023-05-04T15:56:00Z</DateUtc></FrequencyChange></FrequencyChanges></Clock>\n";TMS_Ibrahim-54-3;75.030;1.0.0.561;1;;198773229;2.0.10.242;2.0.10.242;05/04/2023;04/05/2023 15:56;17:56:01;2.0.10.147;0;;-999999;19;43594;0;1;793;44387;1;1;1;2;1;2;1;BlockProcFischi;BlockList;1;25;0;;-999999;8;46190;0;1;903;47093;1;1;1;1;ProcFischi1;ListBlockFischi;13;1;1;0;1;3;Po8_B;225;2;op;3;2;37;1;13;2;0;TrialProc;2374;1249;Po8_B;91;1673;1582;ListFischi1;0;;2;203;149767;13;133;2526;152293;751;1;1694;1;800;310;943;1;1
TMS_Ibrahim;54;3;"<?xml version=""1.0""?>\n<Clock xmlns:dt=""urn:schemas-microsoft-com:datatypes""><Description dt:dt=""string"">E-Prime Primary Realtime Clock</Description><StartTime><Timestamp dt:dt=""int"">0</Timestamp><DateUtc dt:dt=""string"">2023-05-04T15:56:00Z</DateUtc></StartTime><FrequencyChanges><FrequencyChange><Frequency dt:dt=""r8"">3312871</Frequency><Timestamp dt:dt=""r8"">47442765892</Timestamp><Current dt:dt=""r8"">0</Current><DateUtc dt:dt=""string"">2023-05-04T15:56:00Z</DateUtc></FrequencyChange></FrequencyChanges></Clock>\n";TMS_Ibrahim-54-3;75.030;1.0.0.561;1;;198773229;2.0.10.242;2.0.10.242;05/04/2023;04/05/2023 15:56;17:56:01;2.0.10.147;0;;-999999;19;43594;0;1;793;44387;1;1;1;2;1;2;1;BlockProcFischi;BlockList;1;25;0;;-999999;8;46190;0;1;903;47093;1;1;1;1;ProcFischi1;ListBlockFischi;14;1;1;0;1;5;Po3_B;200;4;ug;5;2;60;1;14;4;1;TrialProc;1923;1320;Po3_B;372;1214;1587;ListFischi1;0;;2;203;158280;16;15;1244;159524;445;1;1244;1;591;585;799;1;1
TMS_Ibrahim;54;3;"<?xml version=""1.0""?>\n<Clock xmlns:dt=""urn:schemas-microsoft-com:datatypes""><Description dt:dt=""string"">E-Prime Primary Realtime Clock</Description><StartTime><Timestamp dt:dt=""int"">0</Timestamp><DateUtc dt:dt=""string"">2023-05-04T15:56:00Z</DateUtc></StartTime><FrequencyChanges><FrequencyChange><Frequency dt:dt=""r8"">3312871</Frequency><Timestamp dt:dt=""r8"">47442765892</Timestamp><Current dt:dt=""r8"">0</Current><DateUtc dt:dt=""string"">2023-05-04T15:56:00Z</DateUtc></FrequencyChange></FrequencyChanges></Clock>\n";TMS_Ibrahim-54-3;75.030;1.0.0.561;1;;198773229;2.0.10.242;2.0.10.242;05/04/2023;04/05/2023 15:56;17:56:01;2.0.10.147;0;;-999999;19;43594;0;1;793;44387;1;1;1;2;1;2;1;BlockProcFischi;BlockList;1;25;0;;-999999;8;46190;0;1;903;47093;1;1;1;1;ProcFischi1;ListBlockFischi;15;1;2;0;1;3;Pr5_B;200;3;ug;3;2;30;1;15;3;1;TrialProc;3302;678;Pr5_B;23;1256;1279;ListFischi1;0;;2;203;167225;15;13;1291;168516;635;1;1291;1;1757;570;656;1;1
TMS_Ibrahim;54;3;"<?xml version=""1.0""?>\n<Clock xmlns:dt=""urn:schemas-microsoft-com:datatypes""><Description dt:dt=""string"">E-Prime Primary Realtime Clock</Description><StartTime><Timestamp dt:dt=""int"">0</Timestamp><DateUtc dt:dt=""string"">2023-05-04T15:56:00Z</DateUtc></StartTime><FrequencyChanges><FrequencyChange><Frequency dt:dt=""r8"">3312871</Frequency><Timestamp dt:dt=""r8"">47442765892</Timestamp><Current dt:dt=""r8"">0</Current><DateUtc dt:dt=""string"">2023-05-04T15:56:00Z</DateUtc></FrequencyChange></FrequencyChanges></Clock>\n";TMS_Ibrahim-54-3;75.030;1.0.0.561;1;;198773229;2.0.10.242;2.0.10.242;05/04/2023;04/05/2023 15:56;17:56:01;2.0.10.147;0;;-999999;19;43594;0;1;793;44387;1;1;1;2;1;2;1;BlockProcFischi;BlockList;1;25;0;;-999999;8;46190;0;1;903;47093;1;1;1;1;ProcFischi1;ListBlockFischi;16;1;2;0;0;5;Pr2_B;225;1;op;5;2;1;1;16;1;0;TrialProc;2443;716;Pr2_B;28;1277;1249;ListFischi1;0;;2;203;176611;12;15;1297;177908;641;1;1297;1;1081;578;656;1;1
TMS_Ibrahim;54;3;"<?xml version=""1.0""?>\n<Clock xmlns:dt=""urn:schemas-microsoft-com:datatypes""><Description dt:dt=""string"">E-Prime Primary Realtime Clock</Description><StartTime><Timestamp dt:dt=""int"">0</Timestamp><DateUtc dt:dt=""string"">2023-05-04T15:56:00Z</DateUtc></StartTime><FrequencyChanges><FrequencyChange><Frequency dt:dt=""r8"">3312871</Frequency><Timestamp dt:dt=""r8"">47442765892</Timestamp><Current dt:dt=""r8"">0</Current><DateUtc dt:dt=""string"">2023-05-04T15:56:00Z</DateUtc></FrequencyChange></FrequencyChanges></Clock>\n";TMS_Ibrahim-54-3;75.030;1.0.0.561;1;;198773229;2.0.10.242;2.0.10.242;05/04/2023;04/05/2023 15:56;17:56:01;2.0.10.147;0;;-999999;19;43594;0;1;793;44387;1;1;1;2;1;2;1;BlockProcFischi;BlockList;1;25;0;;-999999;8;46190;0;1;903;47093;1;1;1;1;ProcFischi1;ListBlockFischi;17;1;2;0;0;5;Pr8_B;200;1;op;5;2;5;1;17;1;0;TrialProc;3349;716;Pr8_B;14;1755;1742;ListFischi1;0;;2;203;184606;14;15;1782;186388;1190;1;1782;1;910;329;592;1;1
TMS_Ibrahim;54;3;"<?xml version=""1.0""?>\n<Clock xmlns:dt=""urn:schemas-microsoft-com:datatypes""><Description dt:dt=""string"">E-Prime Primary Realtime Clock</Description><StartTime><Timestamp dt:dt=""int"">0</Timestamp><DateUtc dt:dt=""string"">2023-05-04T15:56:00Z</DateUtc></StartTime><FrequencyChanges><FrequencyChange><Frequency dt:dt=""r8"">3312871</Frequency><Timestamp dt:dt=""r8"">47442765892</Timestamp><Current dt:dt=""r8"">0</Current><DateUtc dt:dt=""string"">2023-05-04T15:56:00Z</DateUtc></FrequencyChange></FrequencyChanges></Clock>\n";TMS_Ibrahim-54-3;75.030;1.0.0.561;1;;198773229;2.0.10.242;2.0.10.242;05/04/2023;04/05/2023 15:56;17:56:01;2.0.10.147;0;;-999999;19;43594;0;1;793;44387;1;1;1;2;1;2;1;BlockProcFischi;BlockList;1;25;0;;-999999;8;46190;0;1;903;47093;1;1;1;1;ProcFischi1;ListBlockFischi;18;1;2;0;0;3;Pr2_B;175;3;ug;3;2;27;1;18;3;1;TrialProc;2205;721;Pr2_B;97;1159;1255;ListFischi1;0;;3;203;193371;19;13;1192;194563;489;1;1192;1;721;588;703;1;1
TMS_Ibrahim;54;3;"<?xml version=""1.0""?>\n<Clock xmlns:dt=""urn:schemas-microsoft-com:datatypes""><Description dt:dt=""string"">E-Prime Primary Realtime Clock</Description><StartTime><Timestamp dt:dt=""int"">0</Timestamp><DateUtc dt:dt=""string"">2023-05-04T15:56:00Z</DateUtc></StartTime><FrequencyChanges><FrequencyChange><Frequency dt:dt=""r8"">3312871</Frequency><Timestamp dt:dt=""r8"">47442765892</Timestamp><Current dt:dt=""r8"">0</Current><DateUtc dt:dt=""string"">2023-05-04T15:56:00Z</DateUtc></FrequencyChange></FrequencyChanges></Clock>\n";TMS_Ibrahim-54-3;75.030;1.0.0.561;1;;198773229;2.0.10.242;2.0.10.242;05/04/2023;04/05/2023 15:56;17:56:01;2.0.10.147;0;;-999999;19;43594;0;1;793;44387;1;1;1;2;1;2;1;BlockProcFischi;BlockList;1;25;0;;-999999;8;46190;0;1;903;47093;1;1;1;1;ProcFischi1;ListBlockFischi;19;1;1;0;2;5;Po2_B;200;4;ug;5;2;59;1;19;4;1;TrialProc;1555;1582;Po2_B;358;1450;1808;ListFischi1;0;;2;203;201588;12;15;1471;203059;879;1;1471;1;602;333;592;1;1
TMS_Ibrahim;54;3;"<?xml version=""1.0""?>\n<Clock xmlns:dt=""urn:schemas-microsoft-com:datatypes""><Description dt:dt=""string"">E-Prime Primary Realtime Clock</Description><StartTime><Timestamp dt:dt=""int"">0</Timestamp><DateUtc dt:dt=""string"">2023-05-04T15:56:00Z</DateUtc></StartTime><FrequencyChanges><FrequencyChange><Frequency dt:dt=""r8"">3312871</Frequency><Timestamp dt:dt=""r8"">47442765892</Timestamp><Current dt:dt=""r8"">0</Current><DateUtc dt:dt=""string"">2023-05-04T15:56:00Z</DateUtc></FrequencyChange></FrequencyChanges></Clock>\n";TMS_Ibrahim-54-3;75.030;1.0.0.561;1;;198773229;2.0.10.242;2.0.10.242;05/04/2023;04/05/2023 15:56;17:56:01;2.0.10.147;0;;-999999;19;43594;0;1;793;44387;1;1;1;2;1;2;1;BlockProcFischi;BlockList;1;25;0;;-999999;8;46190;0;1;903;47093;1;1;1;1;ProcFischi1;ListBlockFischi;20;1;2;0;0;3;Pr2_B;150;3;ug;3;2;17;1;20;3;1;TrialProc;2365;713;Pr2_B;176;1070;1245;ListFischi1;0;;2;203;209561;9;13;1098;210659;362;1;1098;1;643;558;736;1;1
TMS_Ibrahim;54;3;"<?xml version=""1.0""?>\n<Clock xmlns:dt=""urn:schemas-microsoft-com:datatypes""><Description dt:dt=""string"">E-Prime Primary Realtime Clock</Description><StartTime><Timestamp dt:dt=""int"">0</Timestamp><DateUtc dt:dt=""string"">2023-05-04T15:56:00Z</DateUtc></StartTime><FrequencyChanges><FrequencyChange><Frequency dt:dt=""r8"">3312871</Frequency><Timestamp dt:dt=""r8"">47442765892</Timestamp><Current dt:dt=""r8"">0</Current><DateUtc dt:dt=""string"">2023-05-04T15:56:00Z</DateUtc></FrequencyChange></FrequencyChanges></Clock>\n";TMS_Ibrahim-54-3;75.030;1.0.0.561;1;;198773229;2.0.10.242;2.0.10.242;05/04/2023;04/05/2023 15:56;17:56:01;2.0.10.147;0;;-999999;19;43594;0;1;793;44387;1;1;1;2;1;2;1;BlockProcFischi;BlockList;1;25;0;;-999999;8;46190;0;1;903;47093;1;1;1;1;ProcFischi1;ListBlockFischi;21;1;1;0;0;5;Po2_B;225;4;ug;5;2;54;1;21;4;1;TrialProc;1235;1578;Po2_B;260;1545;1805;ListFischi1;0;;1;201;217185;9;155;2321;219506;291;1;1570;1;835;548;1279;1;1
TMS_Ibrahim;54;3;"<?xml version=""1.0""?>\n<Clock xmlns:dt=""urn:schemas-microsoft-com:datatypes""><Description dt:dt=""string"">E-Prime Primary Realtime Clock</Description><StartTime><Timestamp dt:dt=""int"">0</Timestamp><DateUtc dt:dt=""string"">2023-05-04T15:56:00Z</DateUtc></StartTime><FrequencyChanges><FrequencyChange><Frequency dt:dt=""r8"">3312871</Frequency><Timestamp dt:dt=""r8"">47442765892</Timestamp><Current dt:dt=""r8"">0</Current><DateUtc dt:dt=""string"">2023-05-04T15:56:00Z</DateUtc></FrequencyChange></FrequencyChanges></Clock>\n";TMS_Ibrahim-54-3;75.030;1.0.0.561;1;;198773229;2.0.10.242;2.0.10.242;05/04/2023;04/05/2023 15:56;17:56:01;2.0.10.147;0;;-999999;19;43594;0;1;793;44387;1;1;1;2;1;2;1;BlockProcFischi;BlockList;1;25;0;;-999999;8;46190;0;1;903;47093;1;1;1;1;ProcFischi1;ListBlockFischi;22;0;2;1;0;5;Prmod_B;;1;op;3;2;16;1;22;1;0;TrialProc;1743;1318;Prmod_B;357;1293;1651;ListFischi1;0;;2;203;224909;15;13;1317;226226;645;1;1317;1;1171;392;672;1;0
TMS_Ibrahim;54;3;"<?xml version=""1.0""?>\n<Clock xmlns:dt=""urn:schemas-microsoft-com:datatypes""><Description dt:dt=""string"">E-Prime Primary Realtime Clock</Description><StartTime><Timestamp dt:dt=""int"">0</Timestamp><DateUtc dt:dt=""string"">2023-05-04T15:56:00Z</DateUtc></StartTime><FrequencyChanges><FrequencyChange><Frequency dt:dt=""r8"">3312871</Frequency><Timestamp dt:dt=""r8"">47442765892</Timestamp><Current dt:dt=""r8"">0</Current><DateUtc dt:dt=""string"">2023-05-04T15:56:00Z</DateUtc></FrequencyChange></FrequencyChanges></Clock>\n";TMS_Ibrahim-54-3;75.030;1.0.0.561;1;;198773229;2.0.10.242;2.0.10.242;05/04/2023;04/05/2023 15:56;17:56:01;2.0.10.147;0;;-999999;19;43594;0;1;793;44387;1;1;1;2;1;2;1;BlockProcFischi;BlockList;1;25;0;;-999999;8;46190;0;1;903;47093;1;1;1;1;ProcFischi1;ListBlockFischi;23;1;1;0;1;5;Po8_B;225;4;ug;5;2;53;1;23;4;1;TrialProc;1658;1244;Po8_B;59;1518;1576;ListFischi1;0;;2;203;232955;6;15;1543;234498;712;1;1543;1;603;503;831;1;1
TMS_Ibrahim;54;3;"<?xml version=""1.0""?>\n<Clock xmlns:dt=""urn:schemas-microsoft-com:datatypes""><Description dt:dt=""string"">E-Prime Primary Realtime Clock</Description><StartTime><Timestamp dt:dt=""int"">0</Timestamp><DateUtc dt:dt=""string"">2023-05-04T15:56:00Z</DateUtc></StartTime><FrequencyChanges><FrequencyChange><Frequency dt:dt=""r8"">3312871</Frequency><Timestamp dt:dt=""r8"">47442765892</Timestamp><Current dt:dt=""r8"">0</Current><DateUtc dt:dt=""string"">2023-05-04T15:56:00Z</DateUtc></FrequencyChange></FrequencyChanges></Clock>\n";TMS_Ibrahim-54-3;75.030;1.0.0.561;1;;198773229;2.0.10.242;2.0.10.242;05/04/2023;04/05/2023 15:56;17:56:01;2.0.10.147;0;;-999999;19;43594;0;1;793;44387;1;1;1;2;1;2;1;BlockProcFischi;BlockList;1;25;0;;-999999;8;46190;0;1;903;47093;1;1;1;1;ProcFischi1;ListBlockFischi;24;1;1;0;0;3;Po3_B;200;2;op;3;2;34;1;24;2;0;TrialProc;2010;1316;Po3_B;166;1416;1582;ListFischi1;0;;2;203;241345;12;13;1441;242786;769;1;1441;1;816;246;672;1;1
TMS_Ibrahim;54;3;"<?xml version=""1.0""?>\n<Clock xmlns:dt=""urn:schemas-microsoft-com:datatypes""><Description dt:dt=""string"">E-Prime Primary Realtime Clock</Description><StartTime><Timestamp dt:dt=""int"">0</Timestamp><DateUtc dt:dt=""string"">2023-05-04T15:56:00Z</DateUtc></StartTime><FrequencyChanges><FrequencyChange><Frequency dt:dt=""r8"">3312871</Frequency><Timestamp dt:dt=""r8"">47442765892</Timestamp><Current dt:dt=""r8"">0</Current><DateUtc dt:dt=""string"">2023-05-04T15:56:00Z</DateUtc></FrequencyChange></FrequencyChanges></Clock>\n";TMS_Ibrahim-54-3;75.030;1.0.0.561;1;;198773229;2.0.10.242;2.0.10.242;05/04/2023;04/05/2023 15:56;17:56:01;2.0.10.147;0;;-999999;19;43594;0;1;793;44387;1;1;1;2;1;2;1;BlockProcFischi;BlockList;1;25;0;;-999999;8;46190;0;1;903;47093;1;1;1;1;ProcFischi1;ListBlockFischi;25;1;1;0;0;5;Po8_B;200;4;ug;5;2;58;1;25;4;1;TrialProc;2802;1245;Po8_B;19;1597;1577;ListFischi1;0;;2;203;249667;7;15;1630;251297;463;1;1630;1;591;405;1167;1;1
TMS_Ibrahim;54;3;"<?xml version=""1.0""?>\n<Clock xmlns:dt=""urn:schemas-microsoft-com:datatypes""><Description dt:dt=""string"">E-Prime Primary Realtime Clock</Description><StartTime><Timestamp dt:dt=""int"">0</Timestamp><DateUtc dt:dt=""string"">2023-05-04T15:56:00Z</DateUtc></StartTime><FrequencyChanges><FrequencyChange><Frequency dt:dt=""r8"">3312871</Frequency><Timestamp dt:dt=""r8"">47442765892</Timestamp><Current dt:dt=""r8"">0</Current><DateUtc dt:dt=""string"">2023-05-04T15:56:00Z</DateUtc></FrequencyChange></FrequencyChanges></Clock>\n";TMS_Ibrahim-54-3;75.030;1.0.0.561;1;;198773229;2.0.10.242;2.0.10.242;05/04/2023;04/05/2023 15:56;17:56:01;2.0.10.147;0;;-999999;19;43594;0;1;793;44387;1;1;1;2;1;2;1;BlockProcFischi;BlockList;1;25;0;;-999999;8;46190;0;1;903;47093;1;1;1;1;ProcFischi1;ListBlockFischi;26;1;2;0;1;3;Pr8_B;150;3;ug;3;2;21;1;26;3;1;TrialProc;2063;713;Pr8_B;56;1683;1740;ListFischi1;0;;2;203;258222;9;13;1715;259937;947;1;1715;1;844;297;768;1;1
TMS_Ibrahim;54;3;"<?xml version=""1.0""?>\n<Clock xmlns:dt=""urn:schemas-microsoft-com:datatypes""><Description dt:dt=""string"">E-Prime Primary Realtime Clock</Description><StartTime><Timestamp dt:dt=""int"">0</Timestamp><DateUtc dt:dt=""string"">2023-05-04T15:56:00Z</DateUtc></StartTime><FrequencyChanges><FrequencyChange><Frequency dt:dt=""r8"">3312871</Frequency><Timestamp dt:dt=""r8"">47442765892</Timestamp><Current dt:dt=""r8"">0</Current><DateUtc dt:dt=""string"">2023-05-04T15:56:00Z</DateUtc></FrequencyChange></FrequencyChanges></Clock>\n";TMS_Ibrahim-54-3;75.030;1.0.0.561;1;;198773229;2.0.10.242;2.0.10.242;05/04/2023;04/05/2023 15:56;17:56:01;2.0.10.147;0;;-999999;19;43594;0;1;793;44387;1;1;1;2;1;2;1;BlockProcFischi;BlockList;1;25;0;;-999999;8;46190;0;1;903;47093;1;1;1;1;ProcFischi1;ListBlockFischi;27;1;2;0;0;5;Pr4_B;175;1;op;5;2;8;1;27;1;0;TrialProc;2595;680;Pr4_B;21;1231;1253;ListFischi1;0;;2;203;266612;16;15;1261;267873;573;1;1261;1;732;272;688;1;1
TMS_Ibrahim;54;3;"<?xml version=""1.0""?>\n<Clock xmlns:dt=""urn:schemas-microsoft-com:datatypes""><Description dt:dt=""string"">E-Prime Primary Realtime Clock</Description><StartTime><Timestamp dt:dt=""int"">0</Timestamp><DateUtc dt:dt=""string"">2023-05-04T15:56:00Z</DateUtc></StartTime><FrequencyChanges><FrequencyChange><Frequency dt:dt=""r8"">3312871</Frequency><Timestamp dt:dt=""r8"">47442765892</Timestamp><Current dt:dt=""r8"">0</Current><DateUtc dt:dt=""string"">2023-05-04T15:56:00Z</DateUtc></FrequencyChange></FrequencyChanges></Clock>\n";TMS_Ibrahim-54-3;75.030;1.0.0.561;1;;198773229;2.0.10.242;2.0.10.242;05/04/2023;04/05/2023 15:56;17:56:01;2.0.10.147;0;;-999999;19;43594;0;1;793;44387;1;1;1;2;1;2;1;BlockProcFischi;BlockList;1;25;0;;-999999;8;46190;0;1;903;47093;1;1;1;1;ProcFischi1;ListBlockFischi;28;1;2;0;0;5;Pr2_B;150;1;op;5;2;6;1;28;1;0;TrialProc;4978;715;Pr2_B;9;1258;1248;ListFischi1;0;;2;203;275093;11;15;1292;276385;412;1;1292;1;561;518;880;1;1
TMS_Ibrahim;54;3;"<?xml version=""1.0""?>\n<Clock xmlns:dt=""urn:schemas-microsoft-com:datatypes""><Description dt:dt=""string"">E-Prime Primary Realtime Clock</Description><StartTime><Timestamp dt:dt=""int"">0</Timestamp><DateUtc dt:dt=""string"">2023-05-04T15:56:00Z</DateUtc></StartTime><FrequencyChanges><FrequencyChange><Frequency dt:dt=""r8"">3312871</Frequency><Timestamp dt:dt=""r8"">47442765892</Timestamp><Current dt:dt=""r8"">0</Current><DateUtc dt:dt=""string"">2023-05-04T15:56:00Z</DateUtc></FrequencyChange></FrequencyChanges></Clock>\n";TMS_Ibrahim-54-3;75.030;1.0.0.561;1;;198773229;2.0.10.242;2.0.10.242;05/04/2023;04/05/2023 15:56;17:56:01;2.0.10.147;0;;-999999;19;43594;0;1;793;44387;1;1;1;2;1;2;1;BlockProcFischi;BlockList;1;25;0;;-999999;8;46190;0;1;903;47093;1;1;1;1;ProcFischi1;ListBlockFischi;29;1;2;0;0;5;Pr3_B;125;1;op;5;2;2;1;29;1;0;TrialProc;1802;722;Pr3_B;274;1448;1721;ListFischi1;0;;2;203;283976;18;15;1480;285456;697;1;1480;1;655;434;783;1;1
TMS_Ibrahim;54;3;"<?xml version=""1.0""?>\n<Clock xmlns:dt=""urn:schemas-microsoft-com:datatypes""><Description dt:dt=""string"">E-Prime Primary Realtime Clock</Description><StartTime><Timestamp dt:dt=""int"">0</Timestamp><DateUtc dt:dt=""string"">2023-05-04T15:56:00Z</DateUtc></StartTime><FrequencyChanges><FrequencyChange><Frequency dt:dt=""r8"">3312871</Frequency><Timestamp dt:dt=""r8"">47442765892</Timestamp><Current dt:dt=""r8"">0</Current><DateUtc dt:dt=""string"">2023-05-04T15:56:00Z</DateUtc></FrequencyChange></FrequencyChanges></Clock>\n";TMS_Ibrahim-54-3;75.030;1.0.0.561;1;;198773229;2.0.10.242;2.0.10.242;05/04/2023;04/05/2023 15:56;17:56:01;2.0.10.147;0;;-999999;19;43594;0;1;793;44387;1;1;1;2;1;2;1;BlockProcFischi;BlockList;1;25;0;;-999999;8;46190;0;1;903;47093;1;1;1;1;ProcFischi1;ListBlockFischi;30;1;2;0;1;5;Pr3_B;125;1;op;5;2;12;1;30;1;0;TrialProc;2782;713;Pr3_B;197;1517;1713;ListFischi1;0;;1;203;292794;10;15;1542;294336;854;1;1542;1;1014;262;688;1;1
TMS_Ibrahim;54;3;"<?xml version=""1.0""?>\n<Clock xmlns:dt=""urn:schemas-microsoft-com:datatypes""><Description dt:dt=""string"">E-Prime Primary Realtime Clock</Description><StartTime><Timestamp dt:dt=""int"">0</Timestamp><DateUtc dt:dt=""string"">2023-05-04T15:56:00Z</DateUtc></StartTime><FrequencyChanges><FrequencyChange><Frequency dt:dt=""r8"">3312871</Frequency><Timestamp dt:dt=""r8"">47442765892</Timestamp><Current dt:dt=""r8"">0</Current><DateUtc dt:dt=""string"">2023-05-04T15:56:00Z</DateUtc></FrequencyChange></FrequencyChanges></Clock>\n";TMS_Ibrahim-54-3;75.030;1.0.0.561;1;;198773229;2.0.10.242;2.0.10.242;05/04/2023;04/05/2023 15:56;17:56:01;2.0.10.147;0;;-999999;19;43594;0;1;793;44387;1;1;1;2;1;2;1;BlockProcFischi;BlockList;1;25;0;;-999999;8;46190;0;1;903;47093;1;1;1;1;ProcFischi1;ListBlockFischi;31;1;1;0;0;5;Po4_B;175;4;ug;5;2;51;1;31;4;1;TrialProc;1542;1339;Po4_B;311;2023;1712;ListFischi1;0;;2;203;301938;9;15;2046;303984;750;1;2046;1;1944;334;1296;1;1
TMS_Ibrahim;54;3;"<?xml version=""1.0""?>\n<Clock xmlns:dt=""urn:schemas-microsoft-com:datatypes""><Description dt:dt=""string"">E-Prime Primary Realtime Clock</Description><StartTime><Timestamp dt:dt=""int"">0</Timestamp><DateUtc dt:dt=""string"">2023-05-04T15:56:00Z</DateUtc></StartTime><FrequencyChanges><FrequencyChange><Frequency dt:dt=""r8"">3312871</Frequency><Timestamp dt:dt=""r8"">47442765892</Timestamp><Current dt:dt=""r8"">0</Current><DateUtc dt:dt=""string"">2023-05-04T15:56:00Z</DateUtc></FrequencyChange></FrequencyChanges></Clock>\n";TMS_Ibrahim-54-3;75.030;1.0.0.561;1;;198773229;2.0.10.242;2.0.10.242;05/04/2023;04/05/2023 15:56;17:56:01;2.0.10.147;0;;-999999;19;43594;0;1;793;44387;1;1;1;2;1;2;1;BlockProcFischi;BlockList;1;25;0;;-999999;8;46190;0;1;903;47093;1;1;1;1;ProcFischi1;ListBlockFischi;32;1;2;0;2;5;Pr3_B;125;1;op;5;2;7;1;32;1;0;TrialProc;1885;715;Pr3_B;83;1631;1714;ListFischi1;0;;2;203;310400;11;15;1663;312063;943;1;1663;1;1015;445;720;1;1
TMS_Ibrahim;54;3;"<?xml version=""1.0""?>\n<Clock xmlns:dt=""urn:schemas-microsoft-com:datatypes""><Description dt:dt=""string"">E-Prime Primary Realtime Clock</Description><StartTime><Timestamp dt:dt=""int"">0</Timestamp><DateUtc dt:dt=""string"">2023-05-04T15:56:00Z</DateUtc></StartTime><FrequencyChanges><FrequencyChange><Frequency dt:dt=""r8"">3312871</Frequency><Timestamp dt:dt=""r8"">47442765892</Timestamp><Current dt:dt=""r8"">0</Current><DateUtc dt:dt=""string"">2023-05-04T15:56:00Z</DateUtc></FrequencyChange></FrequencyChanges></Clock>\n";TMS_Ibrahim-54-3;75.030;1.0.0.561;1;;198773229;2.0.10.242;2.0.10.242;05/04/2023;04/05/2023 15:56;17:56:01;2.0.10.147;0;;-999999;19;43594;0;1;793;44387;1;1;1;2;1;2;1;BlockProcFischi;BlockList;1;25;0;;-999999;8;46190;0;1;903;47093;1;1;1;1;ProcFischi1;ListBlockFischi;33;1;2;0;0;3;Pr5_B;125;3;ug;3;2;20;1;33;3;1;TrialProc;2396;682;Pr5_B;5;1278;1283;ListFischi1;0;;2;201;318297;17;13;1302;319599;694;1;1302;1;820;424;608;1;1
TMS_Ibrahim;54;3;"<?xml version=""1.0""?>\n<Clock xmlns:dt=""urn:schemas-microsoft-com:datatypes""><Description dt:dt=""string"">E-Prime Primary Realtime Clock</Description><StartTime><Timestamp dt:dt=""int"">0</Timestamp><DateUtc dt:dt=""string"">2023-05-04T15:56:00Z</DateUtc></StartTime><FrequencyChanges><FrequencyChange><Frequency dt:dt=""r8"">3312871</Frequency><Timestamp dt:dt=""r8"">47442765892</Timestamp><Current dt:dt=""r8"">0</Current><DateUtc dt:dt=""string"">2023-05-04T15:56:00Z</DateUtc></FrequencyChange></FrequencyChanges></Clock>\n";TMS_Ibrahim-54-3;75.030;1.0.0.561;1;;198773229;2.0.10.242;2.0.10.242;05/04/2023;04/05/2023 15:56;17:56:01;2.0.10.147;0;;-999999;19;43594;0;1;793;44387;1;1;1;2;1;2;1;BlockProcFischi;BlockList;1;25;0;;-999999;8;46190;0;1;903;47093;1;1;1;1;ProcFischi1;ListBlockFischi;34;1;2;0;0;5;Pr4_B;100;1;op;5;2;3;1;34;1;0;TrialProc;1724;680;Pr4_B;57;1310;1253;ListFischi1;0;;2;203;326867;17;15;1340;328207;636;1;1340;1;1069;226;704;1;1
TMS_Ibrahim;54;3;"<?xml version=""1.0""?>\n<Clock xmlns:dt=""urn:schemas-microsoft-com:datatypes""><Description dt:dt=""string"">E-Prime Primary Realtime Clock</Description><StartTime><Timestamp dt:dt=""int"">0</Timestamp><DateUtc dt:dt=""string"">2023-05-04T15:56:00Z</DateUtc></StartTime><FrequencyChanges><FrequencyChange><Frequency dt:dt=""r8"">3312871</Frequency><Timestamp dt:dt=""r8"">47442765892</Timestamp><Current dt:dt=""r8"">0</Current><DateUtc dt:dt=""string"">2023-05-04T15:56:00Z</DateUtc></FrequencyChange></FrequencyChanges></Clock>\n";TMS_Ibrahim-54-3;75.030;1.0.0.561;1;;198773229;2.0.10.242;2.0.10.242;05/04/2023;04/05/2023 15:56;17:56:01;2.0.10.147;0;;-999999;19;43594;0;1;793;44387;1;1;1;2;1;2;1;BlockProcFischi;BlockList;1;25;0;;-999999;8;46190;0;1;903;47093;1;1;1;1;ProcFischi1;ListBlockFischi;35;0;1;1;0;3;Pomod_B;;2;op;5;2;47;1;35;2;0;TrialProc;2721;1319;Pomod_B;155;1524;1679;ListFischi1;0;;2;203;335559;15;153;2040;337599;904;1;1544;1;946;600;640;1;0
TMS_Ibrahim;54;3;"<?xml version=""1.0""?>\n<Clock xmlns:dt=""urn:schemas-microsoft-com:datatypes""><Description dt:dt=""string"">E-Prime Primary Realtime Clock</Description><StartTime><Timestamp dt:dt=""int"">0</Timestamp><DateUtc dt:dt=""string"">2023-05-04T15:56:00Z</DateUtc></StartTime><FrequencyChanges><FrequencyChange><Frequency dt:dt=""r8"">3312871</Frequency><Timestamp dt:dt=""r8"">47442765892</Timestamp><Current dt:dt=""r8"">0</Current><DateUtc dt:dt=""string"">2023-05-04T15:56:00Z</DateUtc></FrequencyChange></FrequencyChanges></Clock>\n";TMS_Ibrahim-54-3;75.030;1.0.0.561;1;;198773229;2.0.10.242;2.0.10.242;05/04/2023;04/05/2023 15:56;17:56:01;2.0.10.147;0;;-999999;19;43594;0;1;793;44387;1;1;1;2;1;2;1;BlockProcFischi;BlockList;1;25;0;;-999999;8;46190;0;1;903;47093;1;1;1;1;ProcFischi1;ListBlockFischi;36;1;1;0;0;3;Po8_B;175;2;op;3;2;42;1;36;2;0;TrialProc;2815;1254;Po8_B;12;1573;1586;ListFischi1;0;;2;203;343755;16;13;1603;345358;916;1;1603;1;1036;507;687;1;1
