ExperimentName;Subject;Session;Clock.Information;DataFile.Basename;Display.RefreshRate;ExperimentVersion;Group;Name;RandomSeed;RuntimeVersion;RuntimeVersionExpected;SessionDate;SessionStartDateTimeUtc;SessionTime;StudioVersion;SyncEprimeKinB1.ACC;SyncEprimeKinB1.CRESP;SyncEprimeKinB1.DurationError;SyncEprimeKinB1.OnsetDelay;SyncEprimeKinB1.OnsetTime;SyncEprimeKinB1.OnsetToOnsetTime;SyncEprimeKinB1.RESP;SyncEprimeKinB1.RT;SyncEprimeKinB1.RTTime;Block;BlockINT_0Fischi_1Suoni;BlockList;BlockList.Cycle;BlockList.Sample;ContatoreSuoni;NumSuono;Procedure[Block];Running[Block];Suonilist;SuonoFinSoglia;SyncEprimeKinFischi1.ACC;SyncEprimeKinFischi1.CRESP;SyncEprimeKinFischi1.DurationError;SyncEprimeKinFischi1.OnsetDelay;SyncEprimeKinFischi1.OnsetTime;SyncEprimeKinFischi1.OnsetToOnsetTime;SyncEprimeKinFischi1.RESP;SyncEprimeKinFischi1.RT;SyncEprimeKinFischi1.RTTime;Trial;ListBlockFischi;ListBlockFischi.Cycle;ListBlockFischi.Sample;Procedure[Trial];Running[Trial];SubTrial;AccSogg1;Avatar_Giu1_Su2;CatchTrial_CORR;ContatoreFinestraSoglia;CorrectResponse;File_Name;FinestraSoglia;IdcondEEG;Istruzione;KeySoggetto1;KeySoggetto2;ListFischi1;ListFischi1.Cycle;ListFischi1.Sample;NumeroSuono;OP_UG;Procedure[SubTrial];Resoconto.RT;RTChange;RTimage;RTNetto;RTSubj;RTTouch;Running[SubTrial];StartGo.ACC;StartGo.CRESP;StartGo.DurationError;StartGo.OnsetDelay;StartGo.OnsetTime;StartGo.OnsetToOnsetTime;StartGo.RESP;StartGo.RT;StartGo.RTTime;StartSoggetto1;StartSoggetto2;StopSoggetto1;StopSoggetto2;StopTrial.RT;tempo;TMSoggetto1;ValiditaTrial;Vincitore
TMS_Ibrahim;55;2;"<?xml version=""1.0""?>\n<Clock xmlns:dt=""urn:schemas-microsoft-com:datatypes""><Description dt:dt=""string"">E-Prime Primary Realtime Clock</Description><StartTime><Timestamp dt:dt=""int"">0</Timestamp><DateUtc dt:dt=""string"">2023-06-08T09:09:23Z</DateUtc></StartTime><FrequencyChanges><FrequencyChange><Frequency dt:dt=""r8"">3312822</Frequency><Timestamp dt:dt=""r8"">18862216027</Timestamp><Current dt:dt=""r8"">0</Current><DateUtc dt:dt=""string"">2023-06-08T09:09:23Z</DateUtc></FrequencyChange></FrequencyChanges></Clock>\n";TMS_Ibrahim-55-2;75.028;1.0.0.561;1;;1682984302;2.0.10.242;2.0.10.242;06/08/2023;08/06/2023 09:09;11:09:23;2.0.10.147;0;;-999999;21;18567;0;1;1443;20010;1;1;1;2;1;0;1;BlockProcFischi;BlockList;1;50;0;;-999999;13;22988;0;1;1504;24492;1;1;1;1;ProcFischi1;ListBlockFischi;1;1;1;0;0;5;Po3_B;250;4;ug;5;2;55;1;1;4;1;TrialProc;579;1337;Po3_B;83;1521;1604;ListFischi1;0;;5;210;29439;20;15;1558;30997;550;1;1558;1;722;243;1008;1;1
TMS_Ibrahim;55;2;"<?xml version=""1.0""?>\n<Clock xmlns:dt=""urn:schemas-microsoft-com:datatypes""><Description dt:dt=""string"">E-Prime Primary Realtime Clock</Description><StartTime><Timestamp dt:dt=""int"">0</Timestamp><DateUtc dt:dt=""string"">2023-06-08T09:09:23Z</DateUtc></StartTime><FrequencyChanges><FrequencyChange><Frequency dt:dt=""r8"">3312822</Frequency><Timestamp dt:dt=""r8"">18862216027</Timestamp><Current dt:dt=""r8"">0</Current><DateUtc dt:dt=""string"">2023-06-08T09:09:23Z</DateUtc></FrequencyChange></FrequencyChanges></Clock>\n";TMS_Ibrahim-55-2;75.028;1.0.0.561;1;;1682984302;2.0.10.242;2.0.10.242;06/08/2023;08/06/2023 09:09;11:09:23;2.0.10.147;0;;-999999;21;18567;0;1;1443;20010;1;1;1;2;1;0;1;BlockProcFischi;BlockList;1;50;0;;-999999;13;22988;0;1;1504;24492;1;1;1;1;ProcFischi1;ListBlockFischi;2;1;1;0;0;5;Po4_B;225;4;ug;5;2;56;1;2;4;1;TrialProc;595;1347;Po4_B;189;1531;1720;ListFischi1;0;;2;201;37096;13;15;1565;38661;605;1;1565;1;73;355;960;1;1
TMS_Ibrahim;55;2;"<?xml version=""1.0""?>\n<Clock xmlns:dt=""urn:schemas-microsoft-com:datatypes""><Description dt:dt=""string"">E-Prime Primary Realtime Clock</Description><StartTime><Timestamp dt:dt=""int"">0</Timestamp><DateUtc dt:dt=""string"">2023-06-08T09:09:23Z</DateUtc></StartTime><FrequencyChanges><FrequencyChange><Frequency dt:dt=""r8"">3312822</Frequency><Timestamp dt:dt=""r8"">18862216027</Timestamp><Current dt:dt=""r8"">0</Current><DateUtc dt:dt=""string"">2023-06-08T09:09:23Z</DateUtc></FrequencyChange></FrequencyChanges></Clock>\n";TMS_Ibrahim-55-2;75.028;1.0.0.561;1;;1682984302;2.0.10.242;2.0.10.242;06/08/2023;08/06/2023 09:09;11:09:23;2.0.10.147;0;;-999999;21;18567;0;1;1443;20010;1;1;1;2;1;0;1;BlockProcFischi;BlockList;1;50;0;;-999999;13;22988;0;1;1504;24492;1;1;1;1;ProcFischi1;ListBlockFischi;3;1;1;0;0;3;Po5_B;250;2;op;3;2;41;1;3;2;0;TrialProc;701;981;Po5_B;15;1459;1475;ListFischi1;0;;2;203;46111;8;13;1494;47605;550;1;1494;1;274;483;944;1;1
TMS_Ibrahim;55;2;"<?xml version=""1.0""?>\n<Clock xmlns:dt=""urn:schemas-microsoft-com:datatypes""><Description dt:dt=""string"">E-Prime Primary Realtime Clock</Description><StartTime><Timestamp dt:dt=""int"">0</Timestamp><DateUtc dt:dt=""string"">2023-06-08T09:09:23Z</DateUtc></StartTime><FrequencyChanges><FrequencyChange><Frequency dt:dt=""r8"">3312822</Frequency><Timestamp dt:dt=""r8"">18862216027</Timestamp><Current dt:dt=""r8"">0</Current><DateUtc dt:dt=""string"">2023-06-08T09:09:23Z</DateUtc></FrequencyChange></FrequencyChanges></Clock>\n";TMS_Ibrahim-55-2;75.028;1.0.0.561;1;;1682984302;2.0.10.242;2.0.10.242;06/08/2023;08/06/2023 09:09;11:09:23;2.0.10.147;0;;-999999;21;18567;0;1;1443;20010;1;1;1;2;1;0;1;BlockProcFischi;BlockList;1;50;0;;-999999;13;22988;0;1;1504;24492;1;1;1;1;ProcFischi1;ListBlockFischi;4;1;2;0;0;3;Pr2_B;250;3;ug;3;2;17;1;4;3;1;TrialProc;919;725;Pr2_B;3;1255;1258;ListFischi1;0;;2;201;53552;18;13;1285;54837;405;1;1285;1;3;256;880;1;1
TMS_Ibrahim;55;2;"<?xml version=""1.0""?>\n<Clock xmlns:dt=""urn:schemas-microsoft-com:datatypes""><Description dt:dt=""string"">E-Prime Primary Realtime Clock</Description><StartTime><Timestamp dt:dt=""int"">0</Timestamp><DateUtc dt:dt=""string"">2023-06-08T09:09:23Z</DateUtc></StartTime><FrequencyChanges><FrequencyChange><Frequency dt:dt=""r8"">3312822</Frequency><Timestamp dt:dt=""r8"">18862216027</Timestamp><Current dt:dt=""r8"">0</Current><DateUtc dt:dt=""string"">2023-06-08T09:09:23Z</DateUtc></FrequencyChange></FrequencyChanges></Clock>\n";TMS_Ibrahim-55-2;75.028;1.0.0.561;1;;1682984302;2.0.10.242;2.0.10.242;06/08/2023;08/06/2023 09:09;11:09:23;2.0.10.147;0;;-999999;21;18567;0;1;1443;20010;1;1;1;2;1;0;1;BlockProcFischi;BlockList;1;50;0;;-999999;13;22988;0;1;1504;24492;1;1;1;1;ProcFischi1;ListBlockFischi;5;1;1;0;0;5;Po3_B;200;4;ug;5;2;60;1;5;4;1;TrialProc;576;1320;Po3_B;30;1554;1585;ListFischi1;0;;2;203;60928;12;15;1589;62517;485;1;1589;1;312;499;1104;1;1
TMS_Ibrahim;55;2;"<?xml version=""1.0""?>\n<Clock xmlns:dt=""urn:schemas-microsoft-com:datatypes""><Description dt:dt=""string"">E-Prime Primary Realtime Clock</Description><StartTime><Timestamp dt:dt=""int"">0</Timestamp><DateUtc dt:dt=""string"">2023-06-08T09:09:23Z</DateUtc></StartTime><FrequencyChanges><FrequencyChange><Frequency dt:dt=""r8"">3312822</Frequency><Timestamp dt:dt=""r8"">18862216027</Timestamp><Current dt:dt=""r8"">0</Current><DateUtc dt:dt=""string"">2023-06-08T09:09:23Z</DateUtc></FrequencyChange></FrequencyChanges></Clock>\n";TMS_Ibrahim-55-2;75.028;1.0.0.561;1;;1682984302;2.0.10.242;2.0.10.242;06/08/2023;08/06/2023 09:09;11:09:23;2.0.10.147;0;;-999999;21;18567;0;1;1443;20010;1;1;1;2;1;0;1;BlockProcFischi;BlockList;1;50;0;;-999999;13;22988;0;1;1504;24492;1;1;1;1;ProcFischi1;ListBlockFischi;6;1;1;0;0;3;Po3_B;225;2;op;3;2;39;1;6;2;0;TrialProc;1195;1322;Po3_B;71;1519;1590;ListFischi1;0;;2;201;68002;16;13;1538;69540;450;1;1538;1;89;215;1088;1;1
TMS_Ibrahim;55;2;"<?xml version=""1.0""?>\n<Clock xmlns:dt=""urn:schemas-microsoft-com:datatypes""><Description dt:dt=""string"">E-Prime Primary Realtime Clock</Description><StartTime><Timestamp dt:dt=""int"">0</Timestamp><DateUtc dt:dt=""string"">2023-06-08T09:09:23Z</DateUtc></StartTime><FrequencyChanges><FrequencyChange><Frequency dt:dt=""r8"">3312822</Frequency><Timestamp dt:dt=""r8"">18862216027</Timestamp><Current dt:dt=""r8"">0</Current><DateUtc dt:dt=""string"">2023-06-08T09:09:23Z</DateUtc></FrequencyChange></FrequencyChanges></Clock>\n";TMS_Ibrahim-55-2;75.028;1.0.0.561;1;;1682984302;2.0.10.242;2.0.10.242;06/08/2023;08/06/2023 09:09;11:09:23;2.0.10.147;0;;-999999;21;18567;0;1;1443;20010;1;1;1;2;1;0;1;BlockProcFischi;BlockList;1;50;0;;-999999;13;22988;0;1;1504;24492;1;1;1;1;ProcFischi1;ListBlockFischi;7;1;2;0;0;3;Pr3_B;225;3;ug;3;2;28;1;7;3;1;TrialProc;474;723;Pr3_B;94;1816;1722;ListFischi1;0;;2;203;75878;17;13;1838;77716;414;1;1838;1;308;310;1424;1;1
TMS_Ibrahim;55;2;"<?xml version=""1.0""?>\n<Clock xmlns:dt=""urn:schemas-microsoft-com:datatypes""><Description dt:dt=""string"">E-Prime Primary Realtime Clock</Description><StartTime><Timestamp dt:dt=""int"">0</Timestamp><DateUtc dt:dt=""string"">2023-06-08T09:09:23Z</DateUtc></StartTime><FrequencyChanges><FrequencyChange><Frequency dt:dt=""r8"">3312822</Frequency><Timestamp dt:dt=""r8"">18862216027</Timestamp><Current dt:dt=""r8"">0</Current><DateUtc dt:dt=""string"">2023-06-08T09:09:23Z</DateUtc></FrequencyChange></FrequencyChanges></Clock>\n";TMS_Ibrahim-55-2;75.028;1.0.0.561;1;;1682984302;2.0.10.242;2.0.10.242;06/08/2023;08/06/2023 09:09;11:09:23;2.0.10.147;0;;-999999;21;18567;0;1;1443;20010;1;1;1;2;1;0;1;BlockProcFischi;BlockList;1;50;0;;-999999;13;22988;0;1;1504;24492;1;1;1;1;ProcFischi1;ListBlockFischi;8;1;1;1;0;3;Pomod_B;200;2;op;3;2;47;1;8;2;0;TrialProc;640;1319;Pomod_B;3;1681;1678;ListFischi1;0;;2;201;83026;13;13;1714;84740;322;1;1714;1;229;488;1392;1;1
TMS_Ibrahim;55;2;"<?xml version=""1.0""?>\n<Clock xmlns:dt=""urn:schemas-microsoft-com:datatypes""><Description dt:dt=""string"">E-Prime Primary Realtime Clock</Description><StartTime><Timestamp dt:dt=""int"">0</Timestamp><DateUtc dt:dt=""string"">2023-06-08T09:09:23Z</DateUtc></StartTime><FrequencyChanges><FrequencyChange><Frequency dt:dt=""r8"">3312822</Frequency><Timestamp dt:dt=""r8"">18862216027</Timestamp><Current dt:dt=""r8"">0</Current><DateUtc dt:dt=""string"">2023-06-08T09:09:23Z</DateUtc></FrequencyChange></FrequencyChanges></Clock>\n";TMS_Ibrahim-55-2;75.028;1.0.0.561;1;;1682984302;2.0.10.242;2.0.10.242;06/08/2023;08/06/2023 09:09;11:09:23;2.0.10.147;0;;-999999;21;18567;0;1;1443;20010;1;1;1;2;1;0;1;BlockProcFischi;BlockList;1;50;0;;-999999;13;22988;0;1;1504;24492;1;1;1;1;ProcFischi1;ListBlockFischi;9;1;2;0;0;5;Pr8_B;250;1;op;5;2;5;1;9;1;0;TrialProc;603;722;Pr8_B;135;1885;1749;ListFischi1;0;;2;203;90633;16;15;1915;92548;347;1;1915;1;761;375;1568;1;1
TMS_Ibrahim;55;2;"<?xml version=""1.0""?>\n<Clock xmlns:dt=""urn:schemas-microsoft-com:datatypes""><Description dt:dt=""string"">E-Prime Primary Realtime Clock</Description><StartTime><Timestamp dt:dt=""int"">0</Timestamp><DateUtc dt:dt=""string"">2023-06-08T09:09:23Z</DateUtc></StartTime><FrequencyChanges><FrequencyChange><Frequency dt:dt=""r8"">3312822</Frequency><Timestamp dt:dt=""r8"">18862216027</Timestamp><Current dt:dt=""r8"">0</Current><DateUtc dt:dt=""string"">2023-06-08T09:09:23Z</DateUtc></FrequencyChange></FrequencyChanges></Clock>\n";TMS_Ibrahim-55-2;75.028;1.0.0.561;1;;1682984302;2.0.10.242;2.0.10.242;06/08/2023;08/06/2023 09:09;11:09:23;2.0.10.147;0;;-999999;21;18567;0;1;1443;20010;1;1;1;2;1;0;1;BlockProcFischi;BlockList;1;50;0;;-999999;13;22988;0;1;1504;24492;1;1;1;1;ProcFischi1;ListBlockFischi;10;0;1;0;0;5;Po2_B;;4;ug;1;2;54;1;10;4;1;TrialProc;831;1582;Po2_B;135;1885;1810;ListFischi1;0;;2;203;98769;10;15;2179;100948;547;1;1;1;287;330;-546;1;0
TMS_Ibrahim;55;2;"<?xml version=""1.0""?>\n<Clock xmlns:dt=""urn:schemas-microsoft-com:datatypes""><Description dt:dt=""string"">E-Prime Primary Realtime Clock</Description><StartTime><Timestamp dt:dt=""int"">0</Timestamp><DateUtc dt:dt=""string"">2023-06-08T09:09:23Z</DateUtc></StartTime><FrequencyChanges><FrequencyChange><Frequency dt:dt=""r8"">3312822</Frequency><Timestamp dt:dt=""r8"">18862216027</Timestamp><Current dt:dt=""r8"">0</Current><DateUtc dt:dt=""string"">2023-06-08T09:09:23Z</DateUtc></FrequencyChange></FrequencyChanges></Clock>\n";TMS_Ibrahim-55-2;75.028;1.0.0.561;1;;1682984302;2.0.10.242;2.0.10.242;06/08/2023;08/06/2023 09:09;11:09:23;2.0.10.147;0;;-999999;21;18567;0;1;1443;20010;1;1;1;2;1;0;1;BlockProcFischi;BlockList;1;50;0;;-999999;13;22988;0;1;1504;24492;1;1;1;1;ProcFischi1;ListBlockFischi;11;0;1;0;0;5;Po4_B;;4;ug;1;2;61;1;11;4;1;TrialProc;552;1343;Po4_B;339;2149;1717;ListFischi1;0;;2;201;105793;10;1;426;106219;426;1;1;1;273;576;-425;1;0
TMS_Ibrahim;55;2;"<?xml version=""1.0""?>\n<Clock xmlns:dt=""urn:schemas-microsoft-com:datatypes""><Description dt:dt=""string"">E-Prime Primary Realtime Clock</Description><StartTime><Timestamp dt:dt=""int"">0</Timestamp><DateUtc dt:dt=""string"">2023-06-08T09:09:23Z</DateUtc></StartTime><FrequencyChanges><FrequencyChange><Frequency dt:dt=""r8"">3312822</Frequency><Timestamp dt:dt=""r8"">18862216027</Timestamp><Current dt:dt=""r8"">0</Current><DateUtc dt:dt=""string"">2023-06-08T09:09:23Z</DateUtc></FrequencyChange></FrequencyChanges></Clock>\n";TMS_Ibrahim-55-2;75.028;1.0.0.561;1;;1682984302;2.0.10.242;2.0.10.242;06/08/2023;08/06/2023 09:09;11:09:23;2.0.10.147;0;;-999999;21;18567;0;1;1443;20010;1;1;1;2;1;0;1;BlockProcFischi;BlockList;1;50;0;;-999999;13;22988;0;1;1504;24492;1;1;1;1;ProcFischi1;ListBlockFischi;12;1;2;0;0;3;Pr8_B;200;3;ug;3;2;26;1;12;3;1;TrialProc;588;720;Pr8_B;38;1784;1745;ListFischi1;0;;2;203;114508;12;131;3399;117907;680;1;1816;1;65;465;1136;1;1
TMS_Ibrahim;55;2;"<?xml version=""1.0""?>\n<Clock xmlns:dt=""urn:schemas-microsoft-com:datatypes""><Description dt:dt=""string"">E-Prime Primary Realtime Clock</Description><StartTime><Timestamp dt:dt=""int"">0</Timestamp><DateUtc dt:dt=""string"">2023-06-08T09:09:23Z</DateUtc></StartTime><FrequencyChanges><FrequencyChange><Frequency dt:dt=""r8"">3312822</Frequency><Timestamp dt:dt=""r8"">18862216027</Timestamp><Current dt:dt=""r8"">0</Current><DateUtc dt:dt=""string"">2023-06-08T09:09:23Z</DateUtc></FrequencyChange></FrequencyChanges></Clock>\n";TMS_Ibrahim-55-2;75.028;1.0.0.561;1;;1682984302;2.0.10.242;2.0.10.242;06/08/2023;08/06/2023 09:09;11:09:23;2.0.10.147;0;;-999999;21;18567;0;1;1443;20010;1;1;1;2;1;0;1;BlockProcFischi;BlockList;1;50;0;;-999999;13;22988;0;1;1504;24492;1;1;1;1;ProcFischi1;ListBlockFischi;13;1;2;0;0;3;Pr2_B;175;3;ug;3;2;22;1;13;3;1;TrialProc;618;715;Pr2_B;32;1280;1248;ListFischi1;0;;2;203;122229;8;13;1310;123539;398;1;1310;1;445;564;912;1;1
TMS_Ibrahim;55;2;"<?xml version=""1.0""?>\n<Clock xmlns:dt=""urn:schemas-microsoft-com:datatypes""><Description dt:dt=""string"">E-Prime Primary Realtime Clock</Description><StartTime><Timestamp dt:dt=""int"">0</Timestamp><DateUtc dt:dt=""string"">2023-06-08T09:09:23Z</DateUtc></StartTime><FrequencyChanges><FrequencyChange><Frequency dt:dt=""r8"">3312822</Frequency><Timestamp dt:dt=""r8"">18862216027</Timestamp><Current dt:dt=""r8"">0</Current><DateUtc dt:dt=""string"">2023-06-08T09:09:23Z</DateUtc></FrequencyChange></FrequencyChanges></Clock>\n";TMS_Ibrahim-55-2;75.028;1.0.0.561;1;;1682984302;2.0.10.242;2.0.10.242;06/08/2023;08/06/2023 09:09;11:09:23;2.0.10.147;0;;-999999;21;18567;0;1;1443;20010;1;1;1;2;1;0;1;BlockProcFischi;BlockList;1;50;0;;-999999;13;22988;0;1;1504;24492;1;1;1;1;ProcFischi1;ListBlockFischi;14;1;1;0;0;5;Po5_B;175;4;ug;5;2;62;1;14;4;1;TrialProc;525;987;Po5_B;131;1350;1481;ListFischi1;0;;2;201;129501;14;15;1382;130883;438;1;1382;1;149;204;944;1;1
TMS_Ibrahim;55;2;"<?xml version=""1.0""?>\n<Clock xmlns:dt=""urn:schemas-microsoft-com:datatypes""><Description dt:dt=""string"">E-Prime Primary Realtime Clock</Description><StartTime><Timestamp dt:dt=""int"">0</Timestamp><DateUtc dt:dt=""string"">2023-06-08T09:09:23Z</DateUtc></StartTime><FrequencyChanges><FrequencyChange><Frequency dt:dt=""r8"">3312822</Frequency><Timestamp dt:dt=""r8"">18862216027</Timestamp><Current dt:dt=""r8"">0</Current><DateUtc dt:dt=""string"">2023-06-08T09:09:23Z</DateUtc></FrequencyChange></FrequencyChanges></Clock>\n";TMS_Ibrahim-55-2;75.028;1.0.0.561;1;;1682984302;2.0.10.242;2.0.10.242;06/08/2023;08/06/2023 09:09;11:09:23;2.0.10.147;0;;-999999;21;18567;0;1;1443;20010;1;1;1;2;1;0;1;BlockProcFischi;BlockList;1;50;0;;-999999;13;22988;0;1;1504;24492;1;1;1;1;ProcFischi1;ListBlockFischi;15;1;2;0;0;3;Pr4_B;150;3;ug;3;2;19;1;15;3;1;TrialProc;790;683;Pr4_B;123;1380;1257;ListFischi1;0;;2;203;137960;18;13;1403;139363;379;1;1403;1;321;472;1024;1;1
TMS_Ibrahim;55;2;"<?xml version=""1.0""?>\n<Clock xmlns:dt=""urn:schemas-microsoft-com:datatypes""><Description dt:dt=""string"">E-Prime Primary Realtime Clock</Description><StartTime><Timestamp dt:dt=""int"">0</Timestamp><DateUtc dt:dt=""string"">2023-06-08T09:09:23Z</DateUtc></StartTime><FrequencyChanges><FrequencyChange><Frequency dt:dt=""r8"">3312822</Frequency><Timestamp dt:dt=""r8"">18862216027</Timestamp><Current dt:dt=""r8"">0</Current><DateUtc dt:dt=""string"">2023-06-08T09:09:23Z</DateUtc></FrequencyChange></FrequencyChanges></Clock>\n";TMS_Ibrahim-55-2;75.028;1.0.0.561;1;;1682984302;2.0.10.242;2.0.10.242;06/08/2023;08/06/2023 09:09;11:09:23;2.0.10.147;0;;-999999;21;18567;0;1;1443;20010;1;1;1;2;1;0;1;BlockProcFischi;BlockList;1;50;0;;-999999;13;22988;0;1;1504;24492;1;1;1;1;ProcFischi1;ListBlockFischi;16;1;2;0;0;5;Pr2_B;225;1;op;5;2;11;1;16;1;0;TrialProc;2517;716;Pr2_B;0;1249;1249;ListFischi1;0;;2;201;145432;10;15;1275;146707;491;1;1275;1;1001;249;784;1;1
TMS_Ibrahim;55;2;"<?xml version=""1.0""?>\n<Clock xmlns:dt=""urn:schemas-microsoft-com:datatypes""><Description dt:dt=""string"">E-Prime Primary Realtime Clock</Description><StartTime><Timestamp dt:dt=""int"">0</Timestamp><DateUtc dt:dt=""string"">2023-06-08T09:09:23Z</DateUtc></StartTime><FrequencyChanges><FrequencyChange><Frequency dt:dt=""r8"">3312822</Frequency><Timestamp dt:dt=""r8"">18862216027</Timestamp><Current dt:dt=""r8"">0</Current><DateUtc dt:dt=""string"">2023-06-08T09:09:23Z</DateUtc></FrequencyChange></FrequencyChanges></Clock>\n";TMS_Ibrahim-55-2;75.028;1.0.0.561;1;;1682984302;2.0.10.242;2.0.10.242;06/08/2023;08/06/2023 09:09;11:09:23;2.0.10.147;0;;-999999;21;18567;0;1;1443;20010;1;1;1;2;1;0;1;BlockProcFischi;BlockList;1;50;0;;-999999;13;22988;0;1;1504;24492;1;1;1;1;ProcFischi1;ListBlockFischi;17;1;1;0;0;3;Po3_B;175;2;op;3;2;44;1;17;2;0;TrialProc;1061;1322;Po3_B;142;1446;1589;ListFischi1;0;;2;203;152957;15;13;1478;154435;454;1;1478;1;36;376;1024;1;1
TMS_Ibrahim;55;2;"<?xml version=""1.0""?>\n<Clock xmlns:dt=""urn:schemas-microsoft-com:datatypes""><Description dt:dt=""string"">E-Prime Primary Realtime Clock</Description><StartTime><Timestamp dt:dt=""int"">0</Timestamp><DateUtc dt:dt=""string"">2023-06-08T09:09:23Z</DateUtc></StartTime><FrequencyChanges><FrequencyChange><Frequency dt:dt=""r8"">3312822</Frequency><Timestamp dt:dt=""r8"">18862216027</Timestamp><Current dt:dt=""r8"">0</Current><DateUtc dt:dt=""string"">2023-06-08T09:09:23Z</DateUtc></FrequencyChange></FrequencyChanges></Clock>\n";TMS_Ibrahim-55-2;75.028;1.0.0.561;1;;1682984302;2.0.10.242;2.0.10.242;06/08/2023;08/06/2023 09:09;11:09:23;2.0.10.147;0;;-999999;21;18567;0;1;1443;20010;1;1;1;2;1;0;1;BlockProcFischi;BlockList;1;50;0;;-999999;13;22988;0;1;1504;24492;1;1;1;1;ProcFischi1;ListBlockFischi;18;1;1;0;0;3;Po8_B;150;2;op;3;2;42;1;18;2;0;TrialProc;844;1248;Po8_B;150;1431;1581;ListFischi1;0;;2;203;161213;10;13;1462;162675;406;1;1462;1;513;580;1056;1;1
TMS_Ibrahim;55;2;"<?xml version=""1.0""?>\n<Clock xmlns:dt=""urn:schemas-microsoft-com:datatypes""><Description dt:dt=""string"">E-Prime Primary Realtime Clock</Description><StartTime><Timestamp dt:dt=""int"">0</Timestamp><DateUtc dt:dt=""string"">2023-06-08T09:09:23Z</DateUtc></StartTime><FrequencyChanges><FrequencyChange><Frequency dt:dt=""r8"">3312822</Frequency><Timestamp dt:dt=""r8"">18862216027</Timestamp><Current dt:dt=""r8"">0</Current><DateUtc dt:dt=""string"">2023-06-08T09:09:23Z</DateUtc></FrequencyChange></FrequencyChanges></Clock>\n";TMS_Ibrahim-55-2;75.028;1.0.0.561;1;;1682984302;2.0.10.242;2.0.10.242;06/08/2023;08/06/2023 09:09;11:09:23;2.0.10.147;0;;-999999;21;18567;0;1;1443;20010;1;1;1;2;1;0;1;BlockProcFischi;BlockList;1;50;0;;-999999;13;22988;0;1;1504;24492;1;1;1;1;ProcFischi1;ListBlockFischi;19;1;2;0;0;5;Pr8_B;200;1;op;5;2;10;1;19;1;0;TrialProc;698;723;Pr8_B;22;1729;1751;ListFischi1;0;;2;201;168789;17;15;1758;170547;702;1;1758;1;381;495;1056;1;1
TMS_Ibrahim;55;2;"<?xml version=""1.0""?>\n<Clock xmlns:dt=""urn:schemas-microsoft-com:datatypes""><Description dt:dt=""string"">E-Prime Primary Realtime Clock</Description><StartTime><Timestamp dt:dt=""int"">0</Timestamp><DateUtc dt:dt=""string"">2023-06-08T09:09:23Z</DateUtc></StartTime><FrequencyChanges><FrequencyChange><Frequency dt:dt=""r8"">3312822</Frequency><Timestamp dt:dt=""r8"">18862216027</Timestamp><Current dt:dt=""r8"">0</Current><DateUtc dt:dt=""string"">2023-06-08T09:09:23Z</DateUtc></FrequencyChange></FrequencyChanges></Clock>\n";TMS_Ibrahim-55-2;75.028;1.0.0.561;1;;1682984302;2.0.10.242;2.0.10.242;06/08/2023;08/06/2023 09:09;11:09:23;2.0.10.147;0;;-999999;21;18567;0;1;1443;20010;1;1;1;2;1;0;1;BlockProcFischi;BlockList;1;50;0;;-999999;13;22988;0;1;1504;24492;1;1;1;1;ProcFischi1;ListBlockFischi;20;0;2;0;0;5;Pr4_B;;1;op;1;2;8;1;20;1;0;TrialProc;642;675;Pr4_B;22;1729;1249;ListFischi1;0;;2;203;178474;9;15;1592;180066;392;1;1;1;118;350;-391;1;0
TMS_Ibrahim;55;2;"<?xml version=""1.0""?>\n<Clock xmlns:dt=""urn:schemas-microsoft-com:datatypes""><Description dt:dt=""string"">E-Prime Primary Realtime Clock</Description><StartTime><Timestamp dt:dt=""int"">0</Timestamp><DateUtc dt:dt=""string"">2023-06-08T09:09:23Z</DateUtc></StartTime><FrequencyChanges><FrequencyChange><Frequency dt:dt=""r8"">3312822</Frequency><Timestamp dt:dt=""r8"">18862216027</Timestamp><Current dt:dt=""r8"">0</Current><DateUtc dt:dt=""string"">2023-06-08T09:09:23Z</DateUtc></FrequencyChange></FrequencyChanges></Clock>\n";TMS_Ibrahim-55-2;75.028;1.0.0.561;1;;1682984302;2.0.10.242;2.0.10.242;06/08/2023;08/06/2023 09:09;11:09:23;2.0.10.147;0;;-999999;21;18567;0;1;1443;20010;1;1;1;2;1;0;1;BlockProcFischi;BlockList;1;50;0;;-999999;13;22988;0;1;1504;24492;1;1;1;1;ProcFischi1;ListBlockFischi;21;1;1;0;0;3;Po4_B;150;2;op;3;2;35;1;21;2;0;TrialProc;1044;1343;Po4_B;209;1923;1715;ListFischi1;0;;2;203;187057;9;13;1953;189010;417;1;1953;1;513;338;1536;1;1
TMS_Ibrahim;55;2;"<?xml version=""1.0""?>\n<Clock xmlns:dt=""urn:schemas-microsoft-com:datatypes""><Description dt:dt=""string"">E-Prime Primary Realtime Clock</Description><StartTime><Timestamp dt:dt=""int"">0</Timestamp><DateUtc dt:dt=""string"">2023-06-08T09:09:23Z</DateUtc></StartTime><FrequencyChanges><FrequencyChange><Frequency dt:dt=""r8"">3312822</Frequency><Timestamp dt:dt=""r8"">18862216027</Timestamp><Current dt:dt=""r8"">0</Current><DateUtc dt:dt=""string"">2023-06-08T09:09:23Z</DateUtc></FrequencyChange></FrequencyChanges></Clock>\n";TMS_Ibrahim-55-2;75.028;1.0.0.561;1;;1682984302;2.0.10.242;2.0.10.242;06/08/2023;08/06/2023 09:09;11:09:23;2.0.10.147;0;;-999999;21;18567;0;1;1443;20010;1;1;1;2;1;0;1;BlockProcFischi;BlockList;1;50;0;;-999999;13;22988;0;1;1504;24492;1;1;1;1;ProcFischi1;ListBlockFischi;22;0;2;0;0;3;Pr4_B;;3;ug;1;2;29;1;22;3;1;TrialProc;1089;676;Pr4_B;209;1923;1250;ListFischi1;0;;2;201;194415;9;13;1859;196274;483;1;1;1;99;400;-482;1;0
TMS_Ibrahim;55;2;"<?xml version=""1.0""?>\n<Clock xmlns:dt=""urn:schemas-microsoft-com:datatypes""><Description dt:dt=""string"">E-Prime Primary Realtime Clock</Description><StartTime><Timestamp dt:dt=""int"">0</Timestamp><DateUtc dt:dt=""string"">2023-06-08T09:09:23Z</DateUtc></StartTime><FrequencyChanges><FrequencyChange><Frequency dt:dt=""r8"">3312822</Frequency><Timestamp dt:dt=""r8"">18862216027</Timestamp><Current dt:dt=""r8"">0</Current><DateUtc dt:dt=""string"">2023-06-08T09:09:23Z</DateUtc></FrequencyChange></FrequencyChanges></Clock>\n";TMS_Ibrahim-55-2;75.028;1.0.0.561;1;;1682984302;2.0.10.242;2.0.10.242;06/08/2023;08/06/2023 09:09;11:09:23;2.0.10.147;0;;-999999;21;18567;0;1;1443;20010;1;1;1;2;1;0;1;BlockProcFischi;BlockList;1;50;0;;-999999;13;22988;0;1;1504;24492;1;1;1;1;ProcFischi1;ListBlockFischi;23;1;1;0;1;3;Po2_B;150;2;op;3;2;43;1;23;2;0;TrialProc;601;1591;Po2_B;10;1808;1817;ListFischi1;0;;2;203;201829;18;13;1837;203666;319;1;1837;1;613;406;1518;1;1
TMS_Ibrahim;55;2;"<?xml version=""1.0""?>\n<Clock xmlns:dt=""urn:schemas-microsoft-com:datatypes""><Description dt:dt=""string"">E-Prime Primary Realtime Clock</Description><StartTime><Timestamp dt:dt=""int"">0</Timestamp><DateUtc dt:dt=""string"">2023-06-08T09:09:23Z</DateUtc></StartTime><FrequencyChanges><FrequencyChange><Frequency dt:dt=""r8"">3312822</Frequency><Timestamp dt:dt=""r8"">18862216027</Timestamp><Current dt:dt=""r8"">0</Current><DateUtc dt:dt=""string"">2023-06-08T09:09:23Z</DateUtc></FrequencyChange></FrequencyChanges></Clock>\n";TMS_Ibrahim-55-2;75.028;1.0.0.561;1;;1682984302;2.0.10.242;2.0.10.242;06/08/2023;08/06/2023 09:09;11:09:23;2.0.10.147;0;;-999999;21;18567;0;1;1443;20010;1;1;1;2;1;0;1;BlockProcFischi;BlockList;1;50;0;;-999999;13;22988;0;1;1504;24492;1;1;1;1;ProcFischi1;ListBlockFischi;24;0;2;0;0;3;Pr8_B;;3;ug;1;2;21;1;24;3;1;TrialProc;957;719;Pr8_B;10;1808;1746;ListFischi1;0;;2;201;209180;11;13;1894;211074;662;1;1;1;25;423;-661;1;0
TMS_Ibrahim;55;2;"<?xml version=""1.0""?>\n<Clock xmlns:dt=""urn:schemas-microsoft-com:datatypes""><Description dt:dt=""string"">E-Prime Primary Realtime Clock</Description><StartTime><Timestamp dt:dt=""int"">0</Timestamp><DateUtc dt:dt=""string"">2023-06-08T09:09:23Z</DateUtc></StartTime><FrequencyChanges><FrequencyChange><Frequency dt:dt=""r8"">3312822</Frequency><Timestamp dt:dt=""r8"">18862216027</Timestamp><Current dt:dt=""r8"">0</Current><DateUtc dt:dt=""string"">2023-06-08T09:09:23Z</DateUtc></FrequencyChange></FrequencyChanges></Clock>\n";TMS_Ibrahim-55-2;75.028;1.0.0.561;1;;1682984302;2.0.10.242;2.0.10.242;06/08/2023;08/06/2023 09:09;11:09:23;2.0.10.147;0;;-999999;21;18567;0;1;1443;20010;1;1;1;2;1;0;1;BlockProcFischi;BlockList;1;50;0;;-999999;13;22988;0;1;1504;24492;1;1;1;1;ProcFischi1;ListBlockFischi;25;1;1;0;0;5;Po2_B;150;4;ug;5;2;49;1;25;4;1;TrialProc;676;1582;Po2_B;55;1754;1809;ListFischi1;0;;2;203;216499;10;155;1967;218466;351;1;1791;1;664;326;1440;1;1
TMS_Ibrahim;55;2;"<?xml version=""1.0""?>\n<Clock xmlns:dt=""urn:schemas-microsoft-com:datatypes""><Description dt:dt=""string"">E-Prime Primary Realtime Clock</Description><StartTime><Timestamp dt:dt=""int"">0</Timestamp><DateUtc dt:dt=""string"">2023-06-08T09:09:23Z</DateUtc></StartTime><FrequencyChanges><FrequencyChange><Frequency dt:dt=""r8"">3312822</Frequency><Timestamp dt:dt=""r8"">18862216027</Timestamp><Current dt:dt=""r8"">0</Current><DateUtc dt:dt=""string"">2023-06-08T09:09:23Z</DateUtc></FrequencyChange></FrequencyChanges></Clock>\n";TMS_Ibrahim-55-2;75.028;1.0.0.561;1;;1682984302;2.0.10.242;2.0.10.242;06/08/2023;08/06/2023 09:09;11:09:23;2.0.10.147;0;;-999999;21;18567;0;1;1443;20010;1;1;1;2;1;0;1;BlockProcFischi;BlockList;1;50;0;;-999999;13;22988;0;1;1504;24492;1;1;1;1;ProcFischi1;ListBlockFischi;26;0;1;0;0;3;Po2_B;;2;op;5;2;33;1;26;2;0;TrialProc;716;1583;Po2_B;3;1812;1809;ListFischi1;0;;2;203;224003;9;15;1839;225842;671;1;1839;1;609;416;1168;1;0
TMS_Ibrahim;55;2;"<?xml version=""1.0""?>\n<Clock xmlns:dt=""urn:schemas-microsoft-com:datatypes""><Description dt:dt=""string"">E-Prime Primary Realtime Clock</Description><StartTime><Timestamp dt:dt=""int"">0</Timestamp><DateUtc dt:dt=""string"">2023-06-08T09:09:23Z</DateUtc></StartTime><FrequencyChanges><FrequencyChange><Frequency dt:dt=""r8"">3312822</Frequency><Timestamp dt:dt=""r8"">18862216027</Timestamp><Current dt:dt=""r8"">0</Current><DateUtc dt:dt=""string"">2023-06-08T09:09:23Z</DateUtc></FrequencyChange></FrequencyChanges></Clock>\n";TMS_Ibrahim-55-2;75.028;1.0.0.561;1;;1682984302;2.0.10.242;2.0.10.242;06/08/2023;08/06/2023 09:09;11:09:23;2.0.10.147;0;;-999999;21;18567;0;1;1443;20010;1;1;1;2;1;0;1;BlockProcFischi;BlockList;1;50;0;;-999999;13;22988;0;1;1504;24492;1;1;1;1;ProcFischi1;ListBlockFischi;27;1;1;0;0;5;Po5_B;125;4;ug;5;2;57;1;27;4;1;TrialProc;731;991;Po5_B;38;1523;1484;ListFischi1;0;;2;203;231753;17;15;1544;233297;409;1;1544;1;184;472;1135;1;1
TMS_Ibrahim;55;2;"<?xml version=""1.0""?>\n<Clock xmlns:dt=""urn:schemas-microsoft-com:datatypes""><Description dt:dt=""string"">E-Prime Primary Realtime Clock</Description><StartTime><Timestamp dt:dt=""int"">0</Timestamp><DateUtc dt:dt=""string"">2023-06-08T09:09:23Z</DateUtc></StartTime><FrequencyChanges><FrequencyChange><Frequency dt:dt=""r8"">3312822</Frequency><Timestamp dt:dt=""r8"">18862216027</Timestamp><Current dt:dt=""r8"">0</Current><DateUtc dt:dt=""string"">2023-06-08T09:09:23Z</DateUtc></FrequencyChange></FrequencyChanges></Clock>\n";TMS_Ibrahim-55-2;75.028;1.0.0.561;1;;1682984302;2.0.10.242;2.0.10.242;06/08/2023;08/06/2023 09:09;11:09:23;2.0.10.147;0;;-999999;21;18567;0;1;1443;20010;1;1;1;2;1;0;1;BlockProcFischi;BlockList;1;50;0;;-999999;13;22988;0;1;1504;24492;1;1;1;1;ProcFischi1;ListBlockFischi;28;1;2;0;0;5;Pr3_B;175;1;op;5;2;2;1;28;1;0;TrialProc;568;718;Pr3_B;78;1639;1717;ListFischi1;0;;2;203;239861;12;15;1660;241521;653;1;1660;1;47;366;1007;1;1
TMS_Ibrahim;55;2;"<?xml version=""1.0""?>\n<Clock xmlns:dt=""urn:schemas-microsoft-com:datatypes""><Description dt:dt=""string"">E-Prime Primary Realtime Clock</Description><StartTime><Timestamp dt:dt=""int"">0</Timestamp><DateUtc dt:dt=""string"">2023-06-08T09:09:23Z</DateUtc></StartTime><FrequencyChanges><FrequencyChange><Frequency dt:dt=""r8"">3312822</Frequency><Timestamp dt:dt=""r8"">18862216027</Timestamp><Current dt:dt=""r8"">0</Current><DateUtc dt:dt=""string"">2023-06-08T09:09:23Z</DateUtc></FrequencyChange></FrequencyChanges></Clock>\n";TMS_Ibrahim-55-2;75.028;1.0.0.561;1;;1682984302;2.0.10.242;2.0.10.242;06/08/2023;08/06/2023 09:09;11:09:23;2.0.10.147;0;;-999999;21;18567;0;1;1443;20010;1;1;1;2;1;0;1;BlockProcFischi;BlockList;1;50;0;;-999999;13;22988;0;1;1504;24492;1;1;1;1;ProcFischi1;ListBlockFischi;29;1;2;0;0;5;Pr5_B;150;1;op;5;2;9;1;29;1;0;TrialProc;1001;673;Pr5_B;180;1453;1272;ListFischi1;0;;3;201;247450;7;15;1479;248929;535;1;1479;1;603;485;944;1;1
TMS_Ibrahim;55;2;"<?xml version=""1.0""?>\n<Clock xmlns:dt=""urn:schemas-microsoft-com:datatypes""><Description dt:dt=""string"">E-Prime Primary Realtime Clock</Description><StartTime><Timestamp dt:dt=""int"">0</Timestamp><DateUtc dt:dt=""string"">2023-06-08T09:09:23Z</DateUtc></StartTime><FrequencyChanges><FrequencyChange><Frequency dt:dt=""r8"">3312822</Frequency><Timestamp dt:dt=""r8"">18862216027</Timestamp><Current dt:dt=""r8"">0</Current><DateUtc dt:dt=""string"">2023-06-08T09:09:23Z</DateUtc></FrequencyChange></FrequencyChanges></Clock>\n";TMS_Ibrahim-55-2;75.028;1.0.0.561;1;;1682984302;2.0.10.242;2.0.10.242;06/08/2023;08/06/2023 09:09;11:09:23;2.0.10.147;0;;-999999;21;18567;0;1;1443;20010;1;1;1;2;1;0;1;BlockProcFischi;BlockList;1;50;0;;-999999;13;22988;0;1;1504;24492;1;1;1;1;ProcFischi1;ListBlockFischi;30;1;2;1;0;3;Prmod_B;125;3;ug;3;2;31;1;30;3;1;TrialProc;843;1321;Prmod_B;67;1588;1654;ListFischi1;0;;2;203;254426;15;13;1623;256049;583;1;1623;1;563;588;1040;1;1
TMS_Ibrahim;55;2;"<?xml version=""1.0""?>\n<Clock xmlns:dt=""urn:schemas-microsoft-com:datatypes""><Description dt:dt=""string"">E-Prime Primary Realtime Clock</Description><StartTime><Timestamp dt:dt=""int"">0</Timestamp><DateUtc dt:dt=""string"">2023-06-08T09:09:23Z</DateUtc></StartTime><FrequencyChanges><FrequencyChange><Frequency dt:dt=""r8"">3312822</Frequency><Timestamp dt:dt=""r8"">18862216027</Timestamp><Current dt:dt=""r8"">0</Current><DateUtc dt:dt=""string"">2023-06-08T09:09:23Z</DateUtc></FrequencyChange></FrequencyChanges></Clock>\n";TMS_Ibrahim-55-2;75.028;1.0.0.561;1;;1682984302;2.0.10.242;2.0.10.242;06/08/2023;08/06/2023 09:09;11:09:23;2.0.10.147;0;;-999999;21;18567;0;1;1443;20010;1;1;1;2;1;0;1;BlockProcFischi;BlockList;1;50;0;;-999999;13;22988;0;1;1504;24492;1;1;1;1;ProcFischi1;ListBlockFischi;31;0;1;0;0;3;Po8_B;;2;op;1;2;37;1;31;2;0;TrialProc;453;1251;Po8_B;67;1588;1585;ListFischi1;0;;3;201;261520;12;133;2465;263985;593;1;1;1;287;329;-592;1;0
TMS_Ibrahim;55;2;"<?xml version=""1.0""?>\n<Clock xmlns:dt=""urn:schemas-microsoft-com:datatypes""><Description dt:dt=""string"">E-Prime Primary Realtime Clock</Description><StartTime><Timestamp dt:dt=""int"">0</Timestamp><DateUtc dt:dt=""string"">2023-06-08T09:09:23Z</DateUtc></StartTime><FrequencyChanges><FrequencyChange><Frequency dt:dt=""r8"">3312822</Frequency><Timestamp dt:dt=""r8"">18862216027</Timestamp><Current dt:dt=""r8"">0</Current><DateUtc dt:dt=""string"">2023-06-08T09:09:23Z</DateUtc></FrequencyChange></FrequencyChanges></Clock>\n";TMS_Ibrahim-55-2;75.028;1.0.0.561;1;;1682984302;2.0.10.242;2.0.10.242;06/08/2023;08/06/2023 09:09;11:09:23;2.0.10.147;0;;-999999;21;18567;0;1;1443;20010;1;1;1;2;1;0;1;BlockProcFischi;BlockList;1;50;0;;-999999;13;22988;0;1;1504;24492;1;1;1;1;ProcFischi1;ListBlockFischi;32;1;2;0;0;3;Pr5_B;100;3;ug;3;2;25;1;32;3;1;TrialProc;646;679;Pr5_B;255;1534;1280;ListFischi1;0;;2;203;268982;14;13;1563;270545;507;1;1563;1;595;282;1056;1;1
TMS_Ibrahim;55;2;"<?xml version=""1.0""?>\n<Clock xmlns:dt=""urn:schemas-microsoft-com:datatypes""><Description dt:dt=""string"">E-Prime Primary Realtime Clock</Description><StartTime><Timestamp dt:dt=""int"">0</Timestamp><DateUtc dt:dt=""string"">2023-06-08T09:09:23Z</DateUtc></StartTime><FrequencyChanges><FrequencyChange><Frequency dt:dt=""r8"">3312822</Frequency><Timestamp dt:dt=""r8"">18862216027</Timestamp><Current dt:dt=""r8"">0</Current><DateUtc dt:dt=""string"">2023-06-08T09:09:23Z</DateUtc></FrequencyChange></FrequencyChanges></Clock>\n";TMS_Ibrahim-55-2;75.028;1.0.0.561;1;;1682984302;2.0.10.242;2.0.10.242;06/08/2023;08/06/2023 09:09;11:09:23;2.0.10.147;0;;-999999;21;18567;0;1;1443;20010;1;1;1;2;1;0;1;BlockProcFischi;BlockList;1;50;0;;-999999;13;22988;0;1;1504;24492;1;1;1;1;ProcFischi1;ListBlockFischi;33;0;2;0;1;3;Pr5_B;;3;ug;1;2;20;1;33;3;1;TrialProc;630;682;Pr5_B;255;1534;1283;ListFischi1;0;;2;203;276923;16;13;1558;278481;166;1;1;1;178;339;-165;1;0
TMS_Ibrahim;55;2;"<?xml version=""1.0""?>\n<Clock xmlns:dt=""urn:schemas-microsoft-com:datatypes""><Description dt:dt=""string"">E-Prime Primary Realtime Clock</Description><StartTime><Timestamp dt:dt=""int"">0</Timestamp><DateUtc dt:dt=""string"">2023-06-08T09:09:23Z</DateUtc></StartTime><FrequencyChanges><FrequencyChange><Frequency dt:dt=""r8"">3312822</Frequency><Timestamp dt:dt=""r8"">18862216027</Timestamp><Current dt:dt=""r8"">0</Current><DateUtc dt:dt=""string"">2023-06-08T09:09:23Z</DateUtc></FrequencyChange></FrequencyChanges></Clock>\n";TMS_Ibrahim-55-2;75.028;1.0.0.561;1;;1682984302;2.0.10.242;2.0.10.242;06/08/2023;08/06/2023 09:09;11:09:23;2.0.10.147;0;;-999999;21;18567;0;1;1443;20010;1;1;1;2;1;0;1;BlockProcFischi;BlockList;1;50;0;;-999999;13;22988;0;1;1504;24492;1;1;1;1;ProcFischi1;ListBlockFischi;34;1;2;0;1;5;Pr2_B;150;1;op;5;2;1;1;34;1;0;TrialProc;1077;714;Pr2_B;31;1217;1248;ListFischi1;0;;2;201;284501;9;15;1244;285745;316;1;1244;1;17;461;928;1;1
TMS_Ibrahim;55;2;"<?xml version=""1.0""?>\n<Clock xmlns:dt=""urn:schemas-microsoft-com:datatypes""><Description dt:dt=""string"">E-Prime Primary Realtime Clock</Description><StartTime><Timestamp dt:dt=""int"">0</Timestamp><DateUtc dt:dt=""string"">2023-06-08T09:09:23Z</DateUtc></StartTime><FrequencyChanges><FrequencyChange><Frequency dt:dt=""r8"">3312822</Frequency><Timestamp dt:dt=""r8"">18862216027</Timestamp><Current dt:dt=""r8"">0</Current><DateUtc dt:dt=""string"">2023-06-08T09:09:23Z</DateUtc></FrequencyChange></FrequencyChanges></Clock>\n";TMS_Ibrahim-55-2;75.028;1.0.0.561;1;;1682984302;2.0.10.242;2.0.10.242;06/08/2023;08/06/2023 09:09;11:09:23;2.0.10.147;0;;-999999;21;18567;0;1;1443;20010;1;1;1;2;1;0;1;BlockProcFischi;BlockList;1;50;0;;-999999;13;22988;0;1;1504;24492;1;1;1;1;ProcFischi1;ListBlockFischi;35;1;1;1;0;5;Pomod_B;100;4;ug;5;2;63;1;35;4;1;TrialProc;2813;1312;Pomod_B;103;1776;1673;ListFischi1;0;;2;203;291821;6;15;1811;293632;500;1;1811;1;657;471;1311;1;1
TMS_Ibrahim;55;2;"<?xml version=""1.0""?>\n<Clock xmlns:dt=""urn:schemas-microsoft-com:datatypes""><Description dt:dt=""string"">E-Prime Primary Realtime Clock</Description><StartTime><Timestamp dt:dt=""int"">0</Timestamp><DateUtc dt:dt=""string"">2023-06-08T09:09:23Z</DateUtc></StartTime><FrequencyChanges><FrequencyChange><Frequency dt:dt=""r8"">3312822</Frequency><Timestamp dt:dt=""r8"">18862216027</Timestamp><Current dt:dt=""r8"">0</Current><DateUtc dt:dt=""string"">2023-06-08T09:09:23Z</DateUtc></FrequencyChange></FrequencyChanges></Clock>\n";TMS_Ibrahim-55-2;75.028;1.0.0.561;1;;1682984302;2.0.10.242;2.0.10.242;06/08/2023;08/06/2023 09:09;11:09:23;2.0.10.147;0;;-999999;21;18567;0;1;1443;20010;1;1;1;2;1;0;1;BlockProcFischi;BlockList;1;50;0;;-999999;13;22988;0;1;1504;24492;1;1;1;1;ProcFischi1;ListBlockFischi;36;0;2;0;0;5;Pr2_B;;1;op;1;2;6;1;36;1;0;TrialProc;698;718;Pr2_B;103;1776;1252;ListFischi1;0;;2;201;299600;11;15;1760;301360;513;1;1;1;34;481;-512;1;0
TMS_Ibrahim;55;2;"<?xml version=""1.0""?>\n<Clock xmlns:dt=""urn:schemas-microsoft-com:datatypes""><Description dt:dt=""string"">E-Prime Primary Realtime Clock</Description><StartTime><Timestamp dt:dt=""int"">0</Timestamp><DateUtc dt:dt=""string"">2023-06-08T09:09:23Z</DateUtc></StartTime><FrequencyChanges><FrequencyChange><Frequency dt:dt=""r8"">3312822</Frequency><Timestamp dt:dt=""r8"">18862216027</Timestamp><Current dt:dt=""r8"">0</Current><DateUtc dt:dt=""string"">2023-06-08T09:09:23Z</DateUtc></FrequencyChange></FrequencyChanges></Clock>\n";TMS_Ibrahim-55-2;75.028;1.0.0.561;1;;1682984302;2.0.10.242;2.0.10.242;06/08/2023;08/06/2023 09:09;11:09:23;2.0.10.147;0;;-999999;21;18567;0;1;1443;20010;1;1;1;2;1;0;1;BlockProcFischi;BlockList;1;50;0;;-999999;13;22988;0;1;1504;24492;1;1;1;1;ProcFischi1;ListBlockFischi;37;1;2;0;0;5;Pr5_B;125;1;op;5;2;14;1;37;1;0;TrialProc;720;675;Pr5_B;286;1559;1274;ListFischi1;0;;2;203;306827;8;15;1589;308416;533;1;1589;1;521;263;1056;1;1
TMS_Ibrahim;55;2;"<?xml version=""1.0""?>\n<Clock xmlns:dt=""urn:schemas-microsoft-com:datatypes""><Description dt:dt=""string"">E-Prime Primary Realtime Clock</Description><StartTime><Timestamp dt:dt=""int"">0</Timestamp><DateUtc dt:dt=""string"">2023-06-08T09:09:23Z</DateUtc></StartTime><FrequencyChanges><FrequencyChange><Frequency dt:dt=""r8"">3312822</Frequency><Timestamp dt:dt=""r8"">18862216027</Timestamp><Current dt:dt=""r8"">0</Current><DateUtc dt:dt=""string"">2023-06-08T09:09:23Z</DateUtc></FrequencyChange></FrequencyChanges></Clock>\n";TMS_Ibrahim-55-2;75.028;1.0.0.561;1;;1682984302;2.0.10.242;2.0.10.242;06/08/2023;08/06/2023 09:09;11:09:23;2.0.10.147;0;;-999999;21;18567;0;1;1443;20010;1;1;1;2;1;0;1;BlockProcFischi;BlockList;1;50;0;;-999999;13;22988;0;1;1504;24492;1;1;1;1;ProcFischi1;ListBlockFischi;38;1;1;0;0;5;Po2_B;100;4;ug;5;2;59;1;38;4;1;TrialProc;600;1585;Po2_B;120;1691;1811;ListFischi1;0;;2;203;313993;12;15;1719;315712;279;1;1719;1;428;342;1440;1;1
TMS_Ibrahim;55;2;"<?xml version=""1.0""?>\n<Clock xmlns:dt=""urn:schemas-microsoft-com:datatypes""><Description dt:dt=""string"">E-Prime Primary Realtime Clock</Description><StartTime><Timestamp dt:dt=""int"">0</Timestamp><DateUtc dt:dt=""string"">2023-06-08T09:09:23Z</DateUtc></StartTime><FrequencyChanges><FrequencyChange><Frequency dt:dt=""r8"">3312822</Frequency><Timestamp dt:dt=""r8"">18862216027</Timestamp><Current dt:dt=""r8"">0</Current><DateUtc dt:dt=""string"">2023-06-08T09:09:23Z</DateUtc></FrequencyChange></FrequencyChanges></Clock>\n";TMS_Ibrahim-55-2;75.028;1.0.0.561;1;;1682984302;2.0.10.242;2.0.10.242;06/08/2023;08/06/2023 09:09;11:09:23;2.0.10.147;0;;-999999;21;18567;0;1;1443;20010;1;1;1;2;1;0;1;BlockProcFischi;BlockList;1;50;0;;-999999;13;22988;0;1;1504;24492;1;1;1;1;ProcFischi1;ListBlockFischi;39;0;2;0;1;5;Pr5_B;;1;op;1;2;4;1;39;1;0;TrialProc;509;680;Pr5_B;120;1691;1279;ListFischi1;0;;2;203;321976;13;155;2056;324032;328;1;1;1;184;590;-327;1;0
TMS_Ibrahim;55;2;"<?xml version=""1.0""?>\n<Clock xmlns:dt=""urn:schemas-microsoft-com:datatypes""><Description dt:dt=""string"">E-Prime Primary Realtime Clock</Description><StartTime><Timestamp dt:dt=""int"">0</Timestamp><DateUtc dt:dt=""string"">2023-06-08T09:09:23Z</DateUtc></StartTime><FrequencyChanges><FrequencyChange><Frequency dt:dt=""r8"">3312822</Frequency><Timestamp dt:dt=""r8"">18862216027</Timestamp><Current dt:dt=""r8"">0</Current><DateUtc dt:dt=""string"">2023-06-08T09:09:23Z</DateUtc></FrequencyChange></FrequencyChanges></Clock>\n";TMS_Ibrahim-55-2;75.028;1.0.0.561;1;;1682984302;2.0.10.242;2.0.10.242;06/08/2023;08/06/2023 09:09;11:09:23;2.0.10.147;0;;-999999;21;18567;0;1;1443;20010;1;1;1;2;1;0;1;BlockProcFischi;BlockList;1;50;0;;-999999;13;22988;0;1;1504;24492;1;1;1;1;ProcFischi1;ListBlockFischi;40;1;1;0;0;3;Po3_B;125;2;op;3;2;34;1;40;2;0;TrialProc;729;1321;Po3_B;109;1478;1587;ListFischi1;0;;2;203;331717;15;133;1691;333408;475;1;1499;1;281;295;1024;1;1
TMS_Ibrahim;55;2;"<?xml version=""1.0""?>\n<Clock xmlns:dt=""urn:schemas-microsoft-com:datatypes""><Description dt:dt=""string"">E-Prime Primary Realtime Clock</Description><StartTime><Timestamp dt:dt=""int"">0</Timestamp><DateUtc dt:dt=""string"">2023-06-08T09:09:23Z</DateUtc></StartTime><FrequencyChanges><FrequencyChange><Frequency dt:dt=""r8"">3312822</Frequency><Timestamp dt:dt=""r8"">18862216027</Timestamp><Current dt:dt=""r8"">0</Current><DateUtc dt:dt=""string"">2023-06-08T09:09:23Z</DateUtc></FrequencyChange></FrequencyChanges></Clock>\n";TMS_Ibrahim-55-2;75.028;1.0.0.561;1;;1682984302;2.0.10.242;2.0.10.242;06/08/2023;08/06/2023 09:09;11:09:23;2.0.10.147;0;;-999999;21;18567;0;1;1443;20010;1;1;1;2;1;0;1;BlockProcFischi;BlockList;1;50;0;;-999999;13;22988;0;1;1504;24492;1;1;1;1;ProcFischi1;ListBlockFischi;41;1;2;0;1;3;Pr3_B;100;3;ug;3;2;18;1;41;3;1;TrialProc;3161;726;Pr3_B;44;1681;1725;ListFischi1;0;;2;203;340950;19;13;1706;342656;618;1;1706;1;159;511;1088;1;1
TMS_Ibrahim;55;2;"<?xml version=""1.0""?>\n<Clock xmlns:dt=""urn:schemas-microsoft-com:datatypes""><Description dt:dt=""string"">E-Prime Primary Realtime Clock</Description><StartTime><Timestamp dt:dt=""int"">0</Timestamp><DateUtc dt:dt=""string"">2023-06-08T09:09:23Z</DateUtc></StartTime><FrequencyChanges><FrequencyChange><Frequency dt:dt=""r8"">3312822</Frequency><Timestamp dt:dt=""r8"">18862216027</Timestamp><Current dt:dt=""r8"">0</Current><DateUtc dt:dt=""string"">2023-06-08T09:09:23Z</DateUtc></FrequencyChange></FrequencyChanges></Clock>\n";TMS_Ibrahim-55-2;75.028;1.0.0.561;1;;1682984302;2.0.10.242;2.0.10.242;06/08/2023;08/06/2023 09:09;11:09:23;2.0.10.147;0;;-999999;21;18567;0;1;1443;20010;1;1;1;2;1;0;1;BlockProcFischi;BlockList;1;50;0;;-999999;13;22988;0;1;1504;24492;1;1;1;1;ProcFischi1;ListBlockFischi;42;1;2;1;1;5;Prmod_B;125;1;op;5;2;15;1;42;1;0;TrialProc;1967;1313;Prmod_B;9;1637;1646;ListFischi1;0;;2;203;351424;7;15;1663;353087;463;1;1663;1;521;361;1200;1;1
TMS_Ibrahim;55;2;"<?xml version=""1.0""?>\n<Clock xmlns:dt=""urn:schemas-microsoft-com:datatypes""><Description dt:dt=""string"">E-Prime Primary Realtime Clock</Description><StartTime><Timestamp dt:dt=""int"">0</Timestamp><DateUtc dt:dt=""string"">2023-06-08T09:09:23Z</DateUtc></StartTime><FrequencyChanges><FrequencyChange><Frequency dt:dt=""r8"">3312822</Frequency><Timestamp dt:dt=""r8"">18862216027</Timestamp><Current dt:dt=""r8"">0</Current><DateUtc dt:dt=""string"">2023-06-08T09:09:23Z</DateUtc></FrequencyChange></FrequencyChanges></Clock>\n";TMS_Ibrahim-55-2;75.028;1.0.0.561;1;;1682984302;2.0.10.242;2.0.10.242;06/08/2023;08/06/2023 09:09;11:09:23;2.0.10.147;0;;-999999;21;18567;0;1;1443;20010;1;1;1;2;1;0;1;BlockProcFischi;BlockList;1;50;0;;-999999;13;22988;0;1;1504;24492;1;1;1;1;ProcFischi1;ListBlockFischi;43;1;1;0;0;5;Po3_B;100;4;ug;5;2;50;1;43;4;1;TrialProc;3711;1313;Po3_B;103;1478;1581;ListFischi1;0;;2;201;358542;7;15;1505;360047;609;1;1505;1;514;286;896;1;1
TMS_Ibrahim;55;2;"<?xml version=""1.0""?>\n<Clock xmlns:dt=""urn:schemas-microsoft-com:datatypes""><Description dt:dt=""string"">E-Prime Primary Realtime Clock</Description><StartTime><Timestamp dt:dt=""int"">0</Timestamp><DateUtc dt:dt=""string"">2023-06-08T09:09:23Z</DateUtc></StartTime><FrequencyChanges><FrequencyChange><Frequency dt:dt=""r8"">3312822</Frequency><Timestamp dt:dt=""r8"">18862216027</Timestamp><Current dt:dt=""r8"">0</Current><DateUtc dt:dt=""string"">2023-06-08T09:09:23Z</DateUtc></FrequencyChange></FrequencyChanges></Clock>\n";TMS_Ibrahim-55-2;75.028;1.0.0.561;1;;1682984302;2.0.10.242;2.0.10.242;06/08/2023;08/06/2023 09:09;11:09:23;2.0.10.147;0;;-999999;21;18567;0;1;1443;20010;1;1;1;2;1;0;1;BlockProcFischi;BlockList;1;50;0;;-999999;13;22988;0;1;1504;24492;1;1;1;1;ProcFischi1;ListBlockFischi;44;0;2;1;0;3;Prmod_B;;3;ug;1;2;32;1;44;3;1;TrialProc;626;1324;Prmod_B;103;1478;1656;ListFischi1;0;;2;203;366622;17;13;2017;368639;513;1;1;1;233;488;-512;1;0
TMS_Ibrahim;55;2;"<?xml version=""1.0""?>\n<Clock xmlns:dt=""urn:schemas-microsoft-com:datatypes""><Description dt:dt=""string"">E-Prime Primary Realtime Clock</Description><StartTime><Timestamp dt:dt=""int"">0</Timestamp><DateUtc dt:dt=""string"">2023-06-08T09:09:23Z</DateUtc></StartTime><FrequencyChanges><FrequencyChange><Frequency dt:dt=""r8"">3312822</Frequency><Timestamp dt:dt=""r8"">18862216027</Timestamp><Current dt:dt=""r8"">0</Current><DateUtc dt:dt=""string"">2023-06-08T09:09:23Z</DateUtc></FrequencyChange></FrequencyChanges></Clock>\n";TMS_Ibrahim-55-2;75.028;1.0.0.561;1;;1682984302;2.0.10.242;2.0.10.242;06/08/2023;08/06/2023 09:09;11:09:23;2.0.10.147;0;;-999999;21;18567;0;1;1443;20010;1;1;1;2;1;0;1;BlockProcFischi;BlockList;1;50;0;;-999999;13;22988;0;1;1504;24492;1;1;1;1;ProcFischi1;ListBlockFischi;45;0;2;0;0;3;Pr3_B;;3;ug;1;2;23;1;45;3;1;TrialProc;732;716;Pr3_B;340;1997;1715;ListFischi1;0;;2;203;375027;9;13;1836;376863;556;1;1;1;21;322;-555;1;0
TMS_Ibrahim;55;2;"<?xml version=""1.0""?>\n<Clock xmlns:dt=""urn:schemas-microsoft-com:datatypes""><Description dt:dt=""string"">E-Prime Primary Realtime Clock</Description><StartTime><Timestamp dt:dt=""int"">0</Timestamp><DateUtc dt:dt=""string"">2023-06-08T09:09:23Z</DateUtc></StartTime><FrequencyChanges><FrequencyChange><Frequency dt:dt=""r8"">3312822</Frequency><Timestamp dt:dt=""r8"">18862216027</Timestamp><Current dt:dt=""r8"">0</Current><DateUtc dt:dt=""string"">2023-06-08T09:09:23Z</DateUtc></FrequencyChange></FrequencyChanges></Clock>\n";TMS_Ibrahim-55-2;75.028;1.0.0.561;1;;1682984302;2.0.10.242;2.0.10.242;06/08/2023;08/06/2023 09:09;11:09:23;2.0.10.147;0;;-999999;21;18567;0;1;1443;20010;1;1;1;2;1;0;1;BlockProcFischi;BlockList;1;50;0;;-999999;13;22988;0;1;1504;24492;1;1;1;1;ProcFischi1;ListBlockFischi;46;1;1;1;0;5;Pomod_B;100;4;ug;5;2;64;1;46;4;1;TrialProc;664;1314;Pomod_B;73;1746;1674;ListFischi1;0;;2;201;382586;7;15;1781;384367;741;1;1781;1;200;337;1040;1;1
TMS_Ibrahim;55;2;"<?xml version=""1.0""?>\n<Clock xmlns:dt=""urn:schemas-microsoft-com:datatypes""><Description dt:dt=""string"">E-Prime Primary Realtime Clock</Description><StartTime><Timestamp dt:dt=""int"">0</Timestamp><DateUtc dt:dt=""string"">2023-06-08T09:09:23Z</DateUtc></StartTime><FrequencyChanges><FrequencyChange><Frequency dt:dt=""r8"">3312822</Frequency><Timestamp dt:dt=""r8"">18862216027</Timestamp><Current dt:dt=""r8"">0</Current><DateUtc dt:dt=""string"">2023-06-08T09:09:23Z</DateUtc></FrequencyChange></FrequencyChanges></Clock>\n";TMS_Ibrahim-55-2;75.028;1.0.0.561;1;;1682984302;2.0.10.242;2.0.10.242;06/08/2023;08/06/2023 09:09;11:09:23;2.0.10.147;0;;-999999;21;18567;0;1;1443;20010;1;1;1;2;1;0;1;BlockProcFischi;BlockList;1;50;0;;-999999;13;22988;0;1;1504;24492;1;1;1;1;ProcFischi1;ListBlockFischi;47;1;1;0;0;3;Po4_B;125;2;op;3;2;40;1;47;2;0;TrialProc;720;1366;Po4_B;18;1745;1726;ListFischi1;0;;4;210;393194;8;13;1781;394975;693;1;1781;1;403;360;1088;1;1
TMS_Ibrahim;55;2;"<?xml version=""1.0""?>\n<Clock xmlns:dt=""urn:schemas-microsoft-com:datatypes""><Description dt:dt=""string"">E-Prime Primary Realtime Clock</Description><StartTime><Timestamp dt:dt=""int"">0</Timestamp><DateUtc dt:dt=""string"">2023-06-08T09:09:23Z</DateUtc></StartTime><FrequencyChanges><FrequencyChange><Frequency dt:dt=""r8"">3312822</Frequency><Timestamp dt:dt=""r8"">18862216027</Timestamp><Current dt:dt=""r8"">0</Current><DateUtc dt:dt=""string"">2023-06-08T09:09:23Z</DateUtc></FrequencyChange></FrequencyChanges></Clock>\n";TMS_Ibrahim-55-2;75.028;1.0.0.561;1;;1682984302;2.0.10.242;2.0.10.242;06/08/2023;08/06/2023 09:09;11:09:23;2.0.10.147;0;;-999999;21;18567;0;1;1443;20010;1;1;1;2;1;0;1;BlockProcFischi;BlockList;1;50;0;;-999999;13;22988;0;1;1504;24492;1;1;1;1;ProcFischi1;ListBlockFischi;48;1;1;0;0;5;Po4_B;75;4;ug;5;2;51;1;48;4;1;TrialProc;587;1351;Po4_B;208;1517;1724;ListFischi1;0;;2;201;400862;17;15;1553;402415;321;1;1553;1;158;454;1232;1;1
TMS_Ibrahim;55;2;"<?xml version=""1.0""?>\n<Clock xmlns:dt=""urn:schemas-microsoft-com:datatypes""><Description dt:dt=""string"">E-Prime Primary Realtime Clock</Description><StartTime><Timestamp dt:dt=""int"">0</Timestamp><DateUtc dt:dt=""string"">2023-06-08T09:09:23Z</DateUtc></StartTime><FrequencyChanges><FrequencyChange><Frequency dt:dt=""r8"">3312822</Frequency><Timestamp dt:dt=""r8"">18862216027</Timestamp><Current dt:dt=""r8"">0</Current><DateUtc dt:dt=""string"">2023-06-08T09:09:23Z</DateUtc></FrequencyChange></FrequencyChanges></Clock>\n";TMS_Ibrahim-55-2;75.028;1.0.0.561;1;;1682984302;2.0.10.242;2.0.10.242;06/08/2023;08/06/2023 09:09;11:09:23;2.0.10.147;0;;-999999;21;18567;0;1;1443;20010;1;1;1;2;1;0;1;BlockProcFischi;BlockList;1;50;0;;-999999;13;22988;0;1;1504;24492;1;1;1;1;ProcFischi1;ListBlockFischi;49;1;1;0;0;3;Po2_B;100;2;op;3;2;38;1;49;2;0;TrialProc;494;1584;Po2_B;0;1811;1811;ListFischi1;0;;2;203;408745;12;133;2341;411086;677;1;1845;1;254;554;1168;1;1
TMS_Ibrahim;55;2;"<?xml version=""1.0""?>\n<Clock xmlns:dt=""urn:schemas-microsoft-com:datatypes""><Description dt:dt=""string"">E-Prime Primary Realtime Clock</Description><StartTime><Timestamp dt:dt=""int"">0</Timestamp><DateUtc dt:dt=""string"">2023-06-08T09:09:23Z</DateUtc></StartTime><FrequencyChanges><FrequencyChange><Frequency dt:dt=""r8"">3312822</Frequency><Timestamp dt:dt=""r8"">18862216027</Timestamp><Current dt:dt=""r8"">0</Current><DateUtc dt:dt=""string"">2023-06-08T09:09:23Z</DateUtc></FrequencyChange></FrequencyChanges></Clock>\n";TMS_Ibrahim-55-2;75.028;1.0.0.561;1;;1682984302;2.0.10.242;2.0.10.242;06/08/2023;08/06/2023 09:09;11:09:23;2.0.10.147;0;;-999999;21;18567;0;1;1443;20010;1;1;1;2;1;0;1;BlockProcFischi;BlockList;1;50;0;;-999999;13;22988;0;1;1504;24492;1;1;1;1;ProcFischi1;ListBlockFischi;50;1;1;1;0;3;Pomod_B;75;2;op;3;2;48;1;50;2;0;TrialProc;639;1315;Pomod_B;55;1730;1675;ListFischi1;0;;2;203;418412;8;13;1762;420174;674;1;1762;1;319;413;1088;1;1
TMS_Ibrahim;55;2;"<?xml version=""1.0""?>\n<Clock xmlns:dt=""urn:schemas-microsoft-com:datatypes""><Description dt:dt=""string"">E-Prime Primary Realtime Clock</Description><StartTime><Timestamp dt:dt=""int"">0</Timestamp><DateUtc dt:dt=""string"">2023-06-08T09:09:23Z</DateUtc></StartTime><FrequencyChanges><FrequencyChange><Frequency dt:dt=""r8"">3312822</Frequency><Timestamp dt:dt=""r8"">18862216027</Timestamp><Current dt:dt=""r8"">0</Current><DateUtc dt:dt=""string"">2023-06-08T09:09:23Z</DateUtc></FrequencyChange></FrequencyChanges></Clock>\n";TMS_Ibrahim-55-2;75.028;1.0.0.561;1;;1682984302;2.0.10.242;2.0.10.242;06/08/2023;08/06/2023 09:09;11:09:23;2.0.10.147;0;;-999999;21;18567;0;1;1443;20010;1;1;1;2;1;0;1;BlockProcFischi;BlockList;1;50;0;;-999999;13;22988;0;1;1504;24492;1;1;1;1;ProcFischi1;ListBlockFischi;51;1;1;0;0;3;Po5_B;75;2;op;3;2;46;1;51;2;0;TrialProc;752;979;Po5_B;0;1513;1513;ListFischi1;0;;2;203;428849;7;13;1533;430382;365;1;1533;1;248;238;1168;1;1
TMS_Ibrahim;55;2;"<?xml version=""1.0""?>\n<Clock xmlns:dt=""urn:schemas-microsoft-com:datatypes""><Description dt:dt=""string"">E-Prime Primary Realtime Clock</Description><StartTime><Timestamp dt:dt=""int"">0</Timestamp><DateUtc dt:dt=""string"">2023-06-08T09:09:23Z</DateUtc></StartTime><FrequencyChanges><FrequencyChange><Frequency dt:dt=""r8"">3312822</Frequency><Timestamp dt:dt=""r8"">18862216027</Timestamp><Current dt:dt=""r8"">0</Current><DateUtc dt:dt=""string"">2023-06-08T09:09:23Z</DateUtc></FrequencyChange></FrequencyChanges></Clock>\n";TMS_Ibrahim-55-2;75.028;1.0.0.561;1;;1682984302;2.0.10.242;2.0.10.242;06/08/2023;08/06/2023 09:09;11:09:23;2.0.10.147;0;;-999999;21;18567;0;1;1443;20010;1;1;1;2;1;0;1;BlockProcFischi;BlockList;1;50;0;;-999999;13;22988;0;1;1504;24492;1;1;1;1;ProcFischi1;ListBlockFischi;52;1;2;0;0;5;Pr3_B;100;1;op;5;2;7;1;52;1;0;TrialProc;767;725;Pr3_B;55;1778;1723;ListFischi1;0;;3;201;436622;17;155;1952;438574;560;1;1808;1;554;487;1248;1;1
TMS_Ibrahim;55;2;"<?xml version=""1.0""?>\n<Clock xmlns:dt=""urn:schemas-microsoft-com:datatypes""><Description dt:dt=""string"">E-Prime Primary Realtime Clock</Description><StartTime><Timestamp dt:dt=""int"">0</Timestamp><DateUtc dt:dt=""string"">2023-06-08T09:09:23Z</DateUtc></StartTime><FrequencyChanges><FrequencyChange><Frequency dt:dt=""r8"">3312822</Frequency><Timestamp dt:dt=""r8"">18862216027</Timestamp><Current dt:dt=""r8"">0</Current><DateUtc dt:dt=""string"">2023-06-08T09:09:23Z</DateUtc></FrequencyChange></FrequencyChanges></Clock>\n";TMS_Ibrahim-55-2;75.028;1.0.0.561;1;;1682984302;2.0.10.242;2.0.10.242;06/08/2023;08/06/2023 09:09;11:09:23;2.0.10.147;0;;-999999;21;18567;0;1;1443;20010;1;1;1;2;1;0;1;BlockProcFischi;BlockList;1;50;0;;-999999;13;22988;0;1;1504;24492;1;1;1;1;ProcFischi1;ListBlockFischi;53;1;1;0;1;5;Po5_B;75;4;ug;5;2;52;1;53;4;1;TrialProc;2716;986;Po5_B;71;1550;1480;ListFischi1;0;;2;203;446090;13;15;1572;447662;548;1;1572;1;267;447;1024;1;1
TMS_Ibrahim;55;2;"<?xml version=""1.0""?>\n<Clock xmlns:dt=""urn:schemas-microsoft-com:datatypes""><Description dt:dt=""string"">E-Prime Primary Realtime Clock</Description><StartTime><Timestamp dt:dt=""int"">0</Timestamp><DateUtc dt:dt=""string"">2023-06-08T09:09:23Z</DateUtc></StartTime><FrequencyChanges><FrequencyChange><Frequency dt:dt=""r8"">3312822</Frequency><Timestamp dt:dt=""r8"">18862216027</Timestamp><Current dt:dt=""r8"">0</Current><DateUtc dt:dt=""string"">2023-06-08T09:09:23Z</DateUtc></FrequencyChange></FrequencyChanges></Clock>\n";TMS_Ibrahim-55-2;75.028;1.0.0.561;1;;1682984302;2.0.10.242;2.0.10.242;06/08/2023;08/06/2023 09:09;11:09:23;2.0.10.147;0;;-999999;21;18567;0;1;1443;20010;1;1;1;2;1;0;1;BlockProcFischi;BlockList;1;50;0;;-999999;13;22988;0;1;1504;24492;1;1;1;1;ProcFischi1;ListBlockFischi;54;1;2;0;0;3;Pr2_B;75;3;ug;3;2;27;1;54;3;1;TrialProc;1125;726;Pr2_B;117;1375;1259;ListFischi1;0;;2;201;453149;18;13;1409;454558;433;1;1409;1;779;374;976;1;1
TMS_Ibrahim;55;2;"<?xml version=""1.0""?>\n<Clock xmlns:dt=""urn:schemas-microsoft-com:datatypes""><Description dt:dt=""string"">E-Prime Primary Realtime Clock</Description><StartTime><Timestamp dt:dt=""int"">0</Timestamp><DateUtc dt:dt=""string"">2023-06-08T09:09:23Z</DateUtc></StartTime><FrequencyChanges><FrequencyChange><Frequency dt:dt=""r8"">3312822</Frequency><Timestamp dt:dt=""r8"">18862216027</Timestamp><Current dt:dt=""r8"">0</Current><DateUtc dt:dt=""string"">2023-06-08T09:09:23Z</DateUtc></FrequencyChange></FrequencyChanges></Clock>\n";TMS_Ibrahim-55-2;75.028;1.0.0.561;1;;1682984302;2.0.10.242;2.0.10.242;06/08/2023;08/06/2023 09:09;11:09:23;2.0.10.147;0;;-999999;21;18567;0;1;1443;20010;1;1;1;2;1;0;1;BlockProcFischi;BlockList;1;50;0;;-999999;13;22988;0;1;1504;24492;1;1;1;1;ProcFischi1;ListBlockFischi;55;0;2;0;0;5;Pr4_B;;1;op;1;2;3;1;55;1;0;TrialProc;525;675;Pr4_B;117;1775;1248;ListFischi1;0;;2;203;460168;9;15;1797;461965;789;1;1;1;488;255;-788;1;0
TMS_Ibrahim;55;2;"<?xml version=""1.0""?>\n<Clock xmlns:dt=""urn:schemas-microsoft-com:datatypes""><Description dt:dt=""string"">E-Prime Primary Realtime Clock</Description><StartTime><Timestamp dt:dt=""int"">0</Timestamp><DateUtc dt:dt=""string"">2023-06-08T09:09:23Z</DateUtc></StartTime><FrequencyChanges><FrequencyChange><Frequency dt:dt=""r8"">3312822</Frequency><Timestamp dt:dt=""r8"">18862216027</Timestamp><Current dt:dt=""r8"">0</Current><DateUtc dt:dt=""string"">2023-06-08T09:09:23Z</DateUtc></FrequencyChange></FrequencyChanges></Clock>\n";TMS_Ibrahim-55-2;75.028;1.0.0.561;1;;1682984302;2.0.10.242;2.0.10.242;06/08/2023;08/06/2023 09:09;11:09:23;2.0.10.147;0;;-999999;21;18567;0;1;1443;20010;1;1;1;2;1;0;1;BlockProcFischi;BlockList;1;50;0;;-999999;13;22988;0;1;1504;24492;1;1;1;1;ProcFischi1;ListBlockFischi;56;0;2;0;1;3;Pr4_B;;3;ug;1;2;24;1;56;3;1;TrialProc;772;677;Pr4_B;527;1775;1251;ListFischi1;0;;2;201;467112;9;13;1605;468717;357;1;1;1;260;329;-356;1;0
TMS_Ibrahim;55;2;"<?xml version=""1.0""?>\n<Clock xmlns:dt=""urn:schemas-microsoft-com:datatypes""><Description dt:dt=""string"">E-Prime Primary Realtime Clock</Description><StartTime><Timestamp dt:dt=""int"">0</Timestamp><DateUtc dt:dt=""string"">2023-06-08T09:09:23Z</DateUtc></StartTime><FrequencyChanges><FrequencyChange><Frequency dt:dt=""r8"">3312822</Frequency><Timestamp dt:dt=""r8"">18862216027</Timestamp><Current dt:dt=""r8"">0</Current><DateUtc dt:dt=""string"">2023-06-08T09:09:23Z</DateUtc></FrequencyChange></FrequencyChanges></Clock>\n";TMS_Ibrahim-55-2;75.028;1.0.0.561;1;;1682984302;2.0.10.242;2.0.10.242;06/08/2023;08/06/2023 09:09;11:09:23;2.0.10.147;0;;-999999;21;18567;0;1;1443;20010;1;1;1;2;1;0;1;BlockProcFischi;BlockList;1;50;0;;-999999;13;22988;0;1;1504;24492;1;1;1;1;ProcFischi1;ListBlockFischi;57;1;2;0;0;5;Pr4_B;75;1;op;5;2;13;1;57;1;0;TrialProc;492;679;Pr4_B;38;1213;1252;ListFischi1;0;;2;203;474134;11;155;2231;476365;375;1;1239;1;421;589;864;1;1
TMS_Ibrahim;55;2;"<?xml version=""1.0""?>\n<Clock xmlns:dt=""urn:schemas-microsoft-com:datatypes""><Description dt:dt=""string"">E-Prime Primary Realtime Clock</Description><StartTime><Timestamp dt:dt=""int"">0</Timestamp><DateUtc dt:dt=""string"">2023-06-08T09:09:23Z</DateUtc></StartTime><FrequencyChanges><FrequencyChange><Frequency dt:dt=""r8"">3312822</Frequency><Timestamp dt:dt=""r8"">18862216027</Timestamp><Current dt:dt=""r8"">0</Current><DateUtc dt:dt=""string"">2023-06-08T09:09:23Z</DateUtc></FrequencyChange></FrequencyChanges></Clock>\n";TMS_Ibrahim-55-2;75.028;1.0.0.561;1;;1682984302;2.0.10.242;2.0.10.242;06/08/2023;08/06/2023 09:09;11:09:23;2.0.10.147;0;;-999999;21;18567;0;1;1443;20010;1;1;1;2;1;0;1;BlockProcFischi;BlockList;1;50;0;;-999999;13;22988;0;1;1504;24492;1;1;1;1;ProcFischi1;ListBlockFischi;58;1;1;0;0;3;Po4_B;50;2;op;3;2;45;1;58;2;0;TrialProc;875;1341;Po4_B;316;1398;1714;ListFischi1;0;;2;201;481481;8;133;1876;483357;420;1;1428;1;130;368;1008;1;1
TMS_Ibrahim;55;2;"<?xml version=""1.0""?>\n<Clock xmlns:dt=""urn:schemas-microsoft-com:datatypes""><Description dt:dt=""string"">E-Prime Primary Realtime Clock</Description><StartTime><Timestamp dt:dt=""int"">0</Timestamp><DateUtc dt:dt=""string"">2023-06-08T09:09:23Z</DateUtc></StartTime><FrequencyChanges><FrequencyChange><Frequency dt:dt=""r8"">3312822</Frequency><Timestamp dt:dt=""r8"">18862216027</Timestamp><Current dt:dt=""r8"">0</Current><DateUtc dt:dt=""string"">2023-06-08T09:09:23Z</DateUtc></FrequencyChange></FrequencyChanges></Clock>\n";TMS_Ibrahim-55-2;75.028;1.0.0.561;1;;1682984302;2.0.10.242;2.0.10.242;06/08/2023;08/06/2023 09:09;11:09:23;2.0.10.147;0;;-999999;21;18567;0;1;1443;20010;1;1;1;2;1;0;1;BlockProcFischi;BlockList;1;50;0;;-999999;13;22988;0;1;1504;24492;1;1;1;1;ProcFischi1;ListBlockFischi;59;0;1;0;1;3;Po5_B;;2;op;5;2;36;1;59;2;0;TrialProc;1931;986;Po5_B;31;1448;1478;ListFischi1;0;;2;203;488647;13;15;1478;490125;454;1;1478;1;573;478;1024;1;0
TMS_Ibrahim;55;2;"<?xml version=""1.0""?>\n<Clock xmlns:dt=""urn:schemas-microsoft-com:datatypes""><Description dt:dt=""string"">E-Prime Primary Realtime Clock</Description><StartTime><Timestamp dt:dt=""int"">0</Timestamp><DateUtc dt:dt=""string"">2023-06-08T09:09:23Z</DateUtc></StartTime><FrequencyChanges><FrequencyChange><Frequency dt:dt=""r8"">3312822</Frequency><Timestamp dt:dt=""r8"">18862216027</Timestamp><Current dt:dt=""r8"">0</Current><DateUtc dt:dt=""string"">2023-06-08T09:09:23Z</DateUtc></FrequencyChange></FrequencyChanges></Clock>\n";TMS_Ibrahim-55-2;75.028;1.0.0.561;1;;1682984302;2.0.10.242;2.0.10.242;06/08/2023;08/06/2023 09:09;11:09:23;2.0.10.147;0;;-999999;21;18567;0;1;1443;20010;1;1;1;2;1;0;1;BlockProcFischi;BlockList;1;50;0;;-999999;13;22988;0;1;1504;24492;1;1;1;1;ProcFischi1;ListBlockFischi;60;1;2;0;1;3;Pr5_B;75;3;ug;3;2;30;1;60;3;1;TrialProc;2707;680;Pr5_B;175;1455;1280;ListFischi1;0;;2;201;495990;14;13;1479;497469;423;1;1479;1;1220;263;1056;1;1
TMS_Ibrahim;55;2;"<?xml version=""1.0""?>\n<Clock xmlns:dt=""urn:schemas-microsoft-com:datatypes""><Description dt:dt=""string"">E-Prime Primary Realtime Clock</Description><StartTime><Timestamp dt:dt=""int"">0</Timestamp><DateUtc dt:dt=""string"">2023-06-08T09:09:23Z</DateUtc></StartTime><FrequencyChanges><FrequencyChange><Frequency dt:dt=""r8"">3312822</Frequency><Timestamp dt:dt=""r8"">18862216027</Timestamp><Current dt:dt=""r8"">0</Current><DateUtc dt:dt=""string"">2023-06-08T09:09:23Z</DateUtc></FrequencyChange></FrequencyChanges></Clock>\n";TMS_Ibrahim-55-2;75.028;1.0.0.561;1;;1682984302;2.0.10.242;2.0.10.242;06/08/2023;08/06/2023 09:09;11:09:23;2.0.10.147;0;;-999999;21;18567;0;1;1443;20010;1;1;1;2;1;0;1;BlockProcFischi;BlockList;1;50;0;;-999999;13;22988;0;1;1504;24492;1;1;1;1;ProcFischi1;ListBlockFischi;61;1;1;0;1;5;Po8_B;75;4;ug;5;2;53;1;61;4;1;TrialProc;1470;1252;Po8_B;15;1601;1585;ListFischi1;0;;2;203;503362;12;15;1627;504989;203;1;1627;1;754;577;1424;1;1
TMS_Ibrahim;55;2;"<?xml version=""1.0""?>\n<Clock xmlns:dt=""urn:schemas-microsoft-com:datatypes""><Description dt:dt=""string"">E-Prime Primary Realtime Clock</Description><StartTime><Timestamp dt:dt=""int"">0</Timestamp><DateUtc dt:dt=""string"">2023-06-08T09:09:23Z</DateUtc></StartTime><FrequencyChanges><FrequencyChange><Frequency dt:dt=""r8"">3312822</Frequency><Timestamp dt:dt=""r8"">18862216027</Timestamp><Current dt:dt=""r8"">0</Current><DateUtc dt:dt=""string"">2023-06-08T09:09:23Z</DateUtc></FrequencyChange></FrequencyChanges></Clock>\n";TMS_Ibrahim-55-2;75.028;1.0.0.561;1;;1682984302;2.0.10.242;2.0.10.242;06/08/2023;08/06/2023 09:09;11:09:23;2.0.10.147;0;;-999999;21;18567;0;1;1443;20010;1;1;1;2;1;0;1;BlockProcFischi;BlockList;1;50;0;;-999999;13;22988;0;1;1504;24492;1;1;1;1;ProcFischi1;ListBlockFischi;62;1;2;0;0;5;Pr3_B;50;1;op;5;2;12;1;62;1;0;TrialProc;761;721;Pr3_B;36;1685;1720;ListFischi1;0;;2;201;510518;14;15;1719;512237;327;1;1719;1;585;472;1392;1;1
TMS_Ibrahim;55;2;"<?xml version=""1.0""?>\n<Clock xmlns:dt=""urn:schemas-microsoft-com:datatypes""><Description dt:dt=""string"">E-Prime Primary Realtime Clock</Description><StartTime><Timestamp dt:dt=""int"">0</Timestamp><DateUtc dt:dt=""string"">2023-06-08T09:09:23Z</DateUtc></StartTime><FrequencyChanges><FrequencyChange><Frequency dt:dt=""r8"">3312822</Frequency><Timestamp dt:dt=""r8"">18862216027</Timestamp><Current dt:dt=""r8"">0</Current><DateUtc dt:dt=""string"">2023-06-08T09:09:23Z</DateUtc></FrequencyChange></FrequencyChanges></Clock>\n";TMS_Ibrahim-55-2;75.028;1.0.0.561;1;;1682984302;2.0.10.242;2.0.10.242;06/08/2023;08/06/2023 09:09;11:09:23;2.0.10.147;0;;-999999;21;18567;0;1;1443;20010;1;1;1;2;1;0;1;BlockProcFischi;BlockList;1;50;0;;-999999;13;22988;0;1;1504;24492;1;1;1;1;ProcFischi1;ListBlockFischi;63;1;2;1;0;5;Prmod_B;50;1;op;5;2;16;1;63;1;0;TrialProc;740;1312;Prmod_B;26;1618;1644;ListFischi1;0;;2;203;518323;6;15;1641;519964;425;1;1641;1;778;540;1216;1;1
TMS_Ibrahim;55;2;"<?xml version=""1.0""?>\n<Clock xmlns:dt=""urn:schemas-microsoft-com:datatypes""><Description dt:dt=""string"">E-Prime Primary Realtime Clock</Description><StartTime><Timestamp dt:dt=""int"">0</Timestamp><DateUtc dt:dt=""string"">2023-06-08T09:09:23Z</DateUtc></StartTime><FrequencyChanges><FrequencyChange><Frequency dt:dt=""r8"">3312822</Frequency><Timestamp dt:dt=""r8"">18862216027</Timestamp><Current dt:dt=""r8"">0</Current><DateUtc dt:dt=""string"">2023-06-08T09:09:23Z</DateUtc></FrequencyChange></FrequencyChanges></Clock>\n";TMS_Ibrahim-55-2;75.028;1.0.0.561;1;;1682984302;2.0.10.242;2.0.10.242;06/08/2023;08/06/2023 09:09;11:09:23;2.0.10.147;0;;-999999;21;18567;0;1;1443;20010;1;1;1;2;1;0;1;BlockProcFischi;BlockList;1;50;0;;-999999;13;22988;0;1;1504;24492;1;1;1;1;ProcFischi1;ListBlockFischi;64;1;1;0;0;5;Po8_B;50;4;ug;5;2;58;1;64;4;1;TrialProc;632;1254;Po8_B;168;1753;1586;ListFischi1;0;;2;201;525740;13;15;1776;527516;656;1;1776;1;335;203;1120;1;1
TMS_Ibrahim;55;4;"<?xml version=""1.0""?>\n<Clock xmlns:dt=""urn:schemas-microsoft-com:datatypes""><Description dt:dt=""string"">E-Prime Primary Realtime Clock</Description><StartTime><Timestamp dt:dt=""int"">0</Timestamp><DateUtc dt:dt=""string"">2023-06-08T10:12:16Z</DateUtc></StartTime><FrequencyChanges><FrequencyChange><Frequency dt:dt=""r8"">3312822</Frequency><Timestamp dt:dt=""r8"">31361376376</Timestamp><Current dt:dt=""r8"">0</Current><DateUtc dt:dt=""string"">2023-06-08T10:12:16Z</DateUtc></FrequencyChange></FrequencyChanges></Clock>\n";TMS_Ibrahim-55-4;75.029;1.0.0.561;1;;1297266088;2.0.10.242;2.0.10.242;06/08/2023;08/06/2023 10:12;12:12:16;2.0.10.147;0;;-999999;15;15975;0;1;871;16846;1;1;1;2;1;1;1;BlockProcFischi;BlockList;1;50;0;;-999999;13;19709;0;1;897;20606;1;1;1;1;ProcFischi1;ListBlockFischi;1;1;2;0;0;5;Pr3_B;250;1;op;5;2;7;1;1;1;0;TrialProc;366;737;Pr3_B;143;1592;1735;ListFischi1;0;;5;210;24741;20;15;1625;26366;729;1;1625;1;218;481;896;1;1
TMS_Ibrahim;55;4;"<?xml version=""1.0""?>\n<Clock xmlns:dt=""urn:schemas-microsoft-com:datatypes""><Description dt:dt=""string"">E-Prime Primary Realtime Clock</Description><StartTime><Timestamp dt:dt=""int"">0</Timestamp><DateUtc dt:dt=""string"">2023-06-08T10:12:16Z</DateUtc></StartTime><FrequencyChanges><FrequencyChange><Frequency dt:dt=""r8"">3312822</Frequency><Timestamp dt:dt=""r8"">31361376376</Timestamp><Current dt:dt=""r8"">0</Current><DateUtc dt:dt=""string"">2023-06-08T10:12:16Z</DateUtc></FrequencyChange></FrequencyChanges></Clock>\n";TMS_Ibrahim-55-4;75.029;1.0.0.561;1;;1297266088;2.0.10.242;2.0.10.242;06/08/2023;08/06/2023 10:12;12:12:16;2.0.10.147;0;;-999999;15;15975;0;1;871;16846;1;1;1;2;1;1;1;BlockProcFischi;BlockList;1;50;0;;-999999;13;19709;0;1;897;20606;1;1;1;1;ProcFischi1;ListBlockFischi;2;1;1;0;0;3;Po3_B;250;2;op;3;2;34;1;2;2;0;TrialProc;769;1315;Po3_B;277;1306;1582;ListFischi1;0;;2;204;32097;8;13;1325;33422;445;1;1325;1;8;447;880;1;1
TMS_Ibrahim;55;4;"<?xml version=""1.0""?>\n<Clock xmlns:dt=""urn:schemas-microsoft-com:datatypes""><Description dt:dt=""string"">E-Prime Primary Realtime Clock</Description><StartTime><Timestamp dt:dt=""int"">0</Timestamp><DateUtc dt:dt=""string"">2023-06-08T10:12:16Z</DateUtc></StartTime><FrequencyChanges><FrequencyChange><Frequency dt:dt=""r8"">3312822</Frequency><Timestamp dt:dt=""r8"">31361376376</Timestamp><Current dt:dt=""r8"">0</Current><DateUtc dt:dt=""string"">2023-06-08T10:12:16Z</DateUtc></FrequencyChange></FrequencyChanges></Clock>\n";TMS_Ibrahim-55-4;75.029;1.0.0.561;1;;1297266088;2.0.10.242;2.0.10.242;06/08/2023;08/06/2023 10:12;12:12:16;2.0.10.147;0;;-999999;15;15975;0;1;871;16846;1;1;1;2;1;1;1;BlockProcFischi;BlockList;1;50;0;;-999999;13;19709;0;1;897;20606;1;1;1;1;ProcFischi1;ListBlockFischi;3;1;1;0;0;5;Po5_B;250;4;ug;5;2;57;1;3;4;1;TrialProc;405;982;Po5_B;190;1285;1476;ListFischi1;0;;2;203;39425;11;15;1309;40734;381;1;1309;1;370;346;928;1;1
TMS_Ibrahim;55;4;"<?xml version=""1.0""?>\n<Clock xmlns:dt=""urn:schemas-microsoft-com:datatypes""><Description dt:dt=""string"">E-Prime Primary Realtime Clock</Description><StartTime><Timestamp dt:dt=""int"">0</Timestamp><DateUtc dt:dt=""string"">2023-06-08T10:12:16Z</DateUtc></StartTime><FrequencyChanges><FrequencyChange><Frequency dt:dt=""r8"">3312822</Frequency><Timestamp dt:dt=""r8"">31361376376</Timestamp><Current dt:dt=""r8"">0</Current><DateUtc dt:dt=""string"">2023-06-08T10:12:16Z</DateUtc></FrequencyChange></FrequencyChanges></Clock>\n";TMS_Ibrahim-55-4;75.029;1.0.0.561;1;;1297266088;2.0.10.242;2.0.10.242;06/08/2023;08/06/2023 10:12;12:12:16;2.0.10.147;0;;-999999;15;15975;0;1;871;16846;1;1;1;2;1;1;1;BlockProcFischi;BlockList;1;50;0;;-999999;13;19709;0;1;897;20606;1;1;1;1;ProcFischi1;ListBlockFischi;4;1;1;0;1;3;Po5_B;250;2;op;3;2;41;1;4;2;0;TrialProc;444;989;Po5_B;159;1323;1482;ListFischi1;0;;2;203;47630;16;13;1344;48974;512;1;1344;1;379;259;832;1;1
TMS_Ibrahim;55;4;"<?xml version=""1.0""?>\n<Clock xmlns:dt=""urn:schemas-microsoft-com:datatypes""><Description dt:dt=""string"">E-Prime Primary Realtime Clock</Description><StartTime><Timestamp dt:dt=""int"">0</Timestamp><DateUtc dt:dt=""string"">2023-06-08T10:12:16Z</DateUtc></StartTime><FrequencyChanges><FrequencyChange><Frequency dt:dt=""r8"">3312822</Frequency><Timestamp dt:dt=""r8"">31361376376</Timestamp><Current dt:dt=""r8"">0</Current><DateUtc dt:dt=""string"">2023-06-08T10:12:16Z</DateUtc></FrequencyChange></FrequencyChanges></Clock>\n";TMS_Ibrahim-55-4;75.029;1.0.0.561;1;;1297266088;2.0.10.242;2.0.10.242;06/08/2023;08/06/2023 10:12;12:12:16;2.0.10.147;0;;-999999;15;15975;0;1;871;16846;1;1;1;2;1;1;1;BlockProcFischi;BlockList;1;50;0;;-999999;13;19709;0;1;897;20606;1;1;1;1;ProcFischi1;ListBlockFischi;5;1;1;0;0;3;Po3_B;225;2;op;3;2;44;1;5;2;0;TrialProc;384;1322;Po3_B;103;1486;1588;ListFischi1;0;;2;201;55096;14;13;1510;56606;486;1;1510;1;298;221;1024;1;1
TMS_Ibrahim;55;4;"<?xml version=""1.0""?>\n<Clock xmlns:dt=""urn:schemas-microsoft-com:datatypes""><Description dt:dt=""string"">E-Prime Primary Realtime Clock</Description><StartTime><Timestamp dt:dt=""int"">0</Timestamp><DateUtc dt:dt=""string"">2023-06-08T10:12:16Z</DateUtc></StartTime><FrequencyChanges><FrequencyChange><Frequency dt:dt=""r8"">3312822</Frequency><Timestamp dt:dt=""r8"">31361376376</Timestamp><Current dt:dt=""r8"">0</Current><DateUtc dt:dt=""string"">2023-06-08T10:12:16Z</DateUtc></FrequencyChange></FrequencyChanges></Clock>\n";TMS_Ibrahim-55-4;75.029;1.0.0.561;1;;1297266088;2.0.10.242;2.0.10.242;06/08/2023;08/06/2023 10:12;12:12:16;2.0.10.147;0;;-999999;15;15975;0;1;871;16846;1;1;1;2;1;1;1;BlockProcFischi;BlockList;1;50;0;;-999999;13;19709;0;1;897;20606;1;1;1;1;ProcFischi1;ListBlockFischi;6;1;1;0;0;5;Po5_B;225;4;ug;5;2;52;1;6;4;1;TrialProc;455;991;Po5_B;259;1743;1483;ListFischi1;0;;2;203;62276;18;15;1770;64046;490;1;1770;1;285;371;1280;1;1
TMS_Ibrahim;55;4;"<?xml version=""1.0""?>\n<Clock xmlns:dt=""urn:schemas-microsoft-com:datatypes""><Description dt:dt=""string"">E-Prime Primary Realtime Clock</Description><StartTime><Timestamp dt:dt=""int"">0</Timestamp><DateUtc dt:dt=""string"">2023-06-08T10:12:16Z</DateUtc></StartTime><FrequencyChanges><FrequencyChange><Frequency dt:dt=""r8"">3312822</Frequency><Timestamp dt:dt=""r8"">31361376376</Timestamp><Current dt:dt=""r8"">0</Current><DateUtc dt:dt=""string"">2023-06-08T10:12:16Z</DateUtc></FrequencyChange></FrequencyChanges></Clock>\n";TMS_Ibrahim-55-4;75.029;1.0.0.561;1;;1297266088;2.0.10.242;2.0.10.242;06/08/2023;08/06/2023 10:12;12:12:16;2.0.10.147;0;;-999999;15;15975;0;1;871;16846;1;1;1;2;1;1;1;BlockProcFischi;BlockList;1;50;0;;-999999;13;19709;0;1;897;20606;1;1;1;1;ProcFischi1;ListBlockFischi;7;1;2;0;0;3;Pr5_B;250;3;ug;3;2;20;1;7;3;1;TrialProc;380;679;Pr5_B;126;1403;1277;ListFischi1;0;;2;201;69186;12;13;1435;70621;283;1;1435;1;344;293;1152;1;1
TMS_Ibrahim;55;4;"<?xml version=""1.0""?>\n<Clock xmlns:dt=""urn:schemas-microsoft-com:datatypes""><Description dt:dt=""string"">E-Prime Primary Realtime Clock</Description><StartTime><Timestamp dt:dt=""int"">0</Timestamp><DateUtc dt:dt=""string"">2023-06-08T10:12:16Z</DateUtc></StartTime><FrequencyChanges><FrequencyChange><Frequency dt:dt=""r8"">3312822</Frequency><Timestamp dt:dt=""r8"">31361376376</Timestamp><Current dt:dt=""r8"">0</Current><DateUtc dt:dt=""string"">2023-06-08T10:12:16Z</DateUtc></FrequencyChange></FrequencyChanges></Clock>\n";TMS_Ibrahim-55-4;75.029;1.0.0.561;1;;1297266088;2.0.10.242;2.0.10.242;06/08/2023;08/06/2023 10:12;12:12:16;2.0.10.147;0;;-999999;15;15975;0;1;871;16846;1;1;1;2;1;1;1;BlockProcFischi;BlockList;1;50;0;;-999999;13;19709;0;1;897;20606;1;1;1;1;ProcFischi1;ListBlockFischi;8;1;1;0;1;5;Po2_B;225;4;ug;5;2;54;1;8;4;1;TrialProc;524;1586;Po2_B;160;1653;1812;ListFischi1;0;;2;203;76396;12;15;1681;78077;465;1;1681;1;673;294;1216;1;1
TMS_Ibrahim;55;4;"<?xml version=""1.0""?>\n<Clock xmlns:dt=""urn:schemas-microsoft-com:datatypes""><Description dt:dt=""string"">E-Prime Primary Realtime Clock</Description><StartTime><Timestamp dt:dt=""int"">0</Timestamp><DateUtc dt:dt=""string"">2023-06-08T10:12:16Z</DateUtc></StartTime><FrequencyChanges><FrequencyChange><Frequency dt:dt=""r8"">3312822</Frequency><Timestamp dt:dt=""r8"">31361376376</Timestamp><Current dt:dt=""r8"">0</Current><DateUtc dt:dt=""string"">2023-06-08T10:12:16Z</DateUtc></FrequencyChange></FrequencyChanges></Clock>\n";TMS_Ibrahim-55-4;75.029;1.0.0.561;1;;1297266088;2.0.10.242;2.0.10.242;06/08/2023;08/06/2023 10:12;12:12:16;2.0.10.147;0;;-999999;15;15975;0;1;871;16846;1;1;1;2;1;1;1;BlockProcFischi;BlockList;1;50;0;;-999999;13;19709;0;1;897;20606;1;1;1;1;ProcFischi1;ListBlockFischi;9;1;1;0;0;3;Po8_B;200;2;op;3;2;37;1;9;2;0;TrialProc;436;1255;Po8_B;89;1499;1588;ListFischi1;0;;2;203;84231;14;13;1526;85757;518;1;1526;1;356;402;1008;1;1
TMS_Ibrahim;55;4;"<?xml version=""1.0""?>\n<Clock xmlns:dt=""urn:schemas-microsoft-com:datatypes""><Description dt:dt=""string"">E-Prime Primary Realtime Clock</Description><StartTime><Timestamp dt:dt=""int"">0</Timestamp><DateUtc dt:dt=""string"">2023-06-08T10:12:16Z</DateUtc></StartTime><FrequencyChanges><FrequencyChange><Frequency dt:dt=""r8"">3312822</Frequency><Timestamp dt:dt=""r8"">31361376376</Timestamp><Current dt:dt=""r8"">0</Current><DateUtc dt:dt=""string"">2023-06-08T10:12:16Z</DateUtc></FrequencyChange></FrequencyChanges></Clock>\n";TMS_Ibrahim-55-4;75.029;1.0.0.561;1;;1297266088;2.0.10.242;2.0.10.242;06/08/2023;08/06/2023 10:12;12:12:16;2.0.10.147;0;;-999999;15;15975;0;1;871;16846;1;1;1;2;1;1;1;BlockProcFischi;BlockList;1;50;0;;-999999;13;19709;0;1;897;20606;1;1;1;1;ProcFischi1;ListBlockFischi;10;1;1;0;0;3;Po2_B;175;2;op;3;2;33;1;10;2;0;TrialProc;310;1581;Po2_B;202;1605;1807;ListFischi1;0;;2;201;91662;7;13;1631;93293;399;1;1631;1;381;216;1232;1;1
TMS_Ibrahim;55;4;"<?xml version=""1.0""?>\n<Clock xmlns:dt=""urn:schemas-microsoft-com:datatypes""><Description dt:dt=""string"">E-Prime Primary Realtime Clock</Description><StartTime><Timestamp dt:dt=""int"">0</Timestamp><DateUtc dt:dt=""string"">2023-06-08T10:12:16Z</DateUtc></StartTime><FrequencyChanges><FrequencyChange><Frequency dt:dt=""r8"">3312822</Frequency><Timestamp dt:dt=""r8"">31361376376</Timestamp><Current dt:dt=""r8"">0</Current><DateUtc dt:dt=""string"">2023-06-08T10:12:16Z</DateUtc></FrequencyChange></FrequencyChanges></Clock>\n";TMS_Ibrahim-55-4;75.029;1.0.0.561;1;;1297266088;2.0.10.242;2.0.10.242;06/08/2023;08/06/2023 10:12;12:12:16;2.0.10.147;0;;-999999;15;15975;0;1;871;16846;1;1;1;2;1;1;1;BlockProcFischi;BlockList;1;50;0;;-999999;13;19709;0;1;897;20606;1;1;1;1;ProcFischi1;ListBlockFischi;11;1;2;0;0;5;Pr5_B;225;1;op;5;2;4;1;11;1;0;TrialProc;479;678;Pr5_B;140;1418;1278;ListFischi1;0;;2;203;99307;13;15;1442;100749;418;1;1442;1;315;209;1024;1;1
TMS_Ibrahim;55;4;"<?xml version=""1.0""?>\n<Clock xmlns:dt=""urn:schemas-microsoft-com:datatypes""><Description dt:dt=""string"">E-Prime Primary Realtime Clock</Description><StartTime><Timestamp dt:dt=""int"">0</Timestamp><DateUtc dt:dt=""string"">2023-06-08T10:12:16Z</DateUtc></StartTime><FrequencyChanges><FrequencyChange><Frequency dt:dt=""r8"">3312822</Frequency><Timestamp dt:dt=""r8"">31361376376</Timestamp><Current dt:dt=""r8"">0</Current><DateUtc dt:dt=""string"">2023-06-08T10:12:16Z</DateUtc></FrequencyChange></FrequencyChanges></Clock>\n";TMS_Ibrahim-55-4;75.029;1.0.0.561;1;;1297266088;2.0.10.242;2.0.10.242;06/08/2023;08/06/2023 10:12;12:12:16;2.0.10.147;0;;-999999;15;15975;0;1;871;16846;1;1;1;2;1;1;1;BlockProcFischi;BlockList;1;50;0;;-999999;13;19709;0;1;897;20606;1;1;1;1;ProcFischi1;ListBlockFischi;12;1;1;0;1;3;Po4_B;175;2;op;3;2;45;1;12;2;0;TrialProc;546;1338;Po4_B;350;1361;1711;ListFischi1;0;;3;201;106311;6;13;1382;107693;342;1;1382;1;386;558;1040;1;1
TMS_Ibrahim;55;4;"<?xml version=""1.0""?>\n<Clock xmlns:dt=""urn:schemas-microsoft-com:datatypes""><Description dt:dt=""string"">E-Prime Primary Realtime Clock</Description><StartTime><Timestamp dt:dt=""int"">0</Timestamp><DateUtc dt:dt=""string"">2023-06-08T10:12:16Z</DateUtc></StartTime><FrequencyChanges><FrequencyChange><Frequency dt:dt=""r8"">3312822</Frequency><Timestamp dt:dt=""r8"">31361376376</Timestamp><Current dt:dt=""r8"">0</Current><DateUtc dt:dt=""string"">2023-06-08T10:12:16Z</DateUtc></FrequencyChange></FrequencyChanges></Clock>\n";TMS_Ibrahim-55-4;75.029;1.0.0.561;1;;1297266088;2.0.10.242;2.0.10.242;06/08/2023;08/06/2023 10:12;12:12:16;2.0.10.147;0;;-999999;15;15975;0;1;871;16846;1;1;1;2;1;1;1;BlockProcFischi;BlockList;1;50;0;;-999999;13;19709;0;1;897;20606;1;1;1;1;ProcFischi1;ListBlockFischi;13;1;2;0;0;3;Pr2_B;225;3;ug;3;2;27;1;13;3;1;TrialProc;362;712;Pr2_B;78;1166;1244;ListFischi1;0;;2;203;113815;6;13;1190;115005;390;1;1190;1;562;515;800;1;1
TMS_Ibrahim;55;4;"<?xml version=""1.0""?>\n<Clock xmlns:dt=""urn:schemas-microsoft-com:datatypes""><Description dt:dt=""string"">E-Prime Primary Realtime Clock</Description><StartTime><Timestamp dt:dt=""int"">0</Timestamp><DateUtc dt:dt=""string"">2023-06-08T10:12:16Z</DateUtc></StartTime><FrequencyChanges><FrequencyChange><Frequency dt:dt=""r8"">3312822</Frequency><Timestamp dt:dt=""r8"">31361376376</Timestamp><Current dt:dt=""r8"">0</Current><DateUtc dt:dt=""string"">2023-06-08T10:12:16Z</DateUtc></FrequencyChange></FrequencyChanges></Clock>\n";TMS_Ibrahim-55-4;75.029;1.0.0.561;1;;1297266088;2.0.10.242;2.0.10.242;06/08/2023;08/06/2023 10:12;12:12:16;2.0.10.147;0;;-999999;15;15975;0;1;871;16846;1;1;1;2;1;1;1;BlockProcFischi;BlockList;1;50;0;;-999999;13;19709;0;1;897;20606;1;1;1;1;ProcFischi1;ListBlockFischi;14;1;1;0;0;5;Po8_B;200;4;ug;5;2;58;1;14;4;1;TrialProc;471;1254;Po8_B;138;1448;1586;ListFischi1;0;;2;201;121018;14;15;1475;122493;371;1;1475;1;591;415;1104;1;1
TMS_Ibrahim;55;4;"<?xml version=""1.0""?>\n<Clock xmlns:dt=""urn:schemas-microsoft-com:datatypes""><Description dt:dt=""string"">E-Prime Primary Realtime Clock</Description><StartTime><Timestamp dt:dt=""int"">0</Timestamp><DateUtc dt:dt=""string"">2023-06-08T10:12:16Z</DateUtc></StartTime><FrequencyChanges><FrequencyChange><Frequency dt:dt=""r8"">3312822</Frequency><Timestamp dt:dt=""r8"">31361376376</Timestamp><Current dt:dt=""r8"">0</Current><DateUtc dt:dt=""string"">2023-06-08T10:12:16Z</DateUtc></FrequencyChange></FrequencyChanges></Clock>\n";TMS_Ibrahim-55-4;75.029;1.0.0.561;1;;1297266088;2.0.10.242;2.0.10.242;06/08/2023;08/06/2023 10:12;12:12:16;2.0.10.147;0;;-999999;15;15975;0;1;871;16846;1;1;1;2;1;1;1;BlockProcFischi;BlockList;1;50;0;;-999999;13;19709;0;1;897;20606;1;1;1;1;ProcFischi1;ListBlockFischi;15;1;1;0;2;3;Po5_B;175;2;op;3;2;36;1;15;2;0;TrialProc;362;999;Po5_B;194;1286;1480;ListFischi1;0;;2;203;128310;12;133;2038;130348;262;1;1319;1;430;411;1057;1;1
TMS_Ibrahim;55;4;"<?xml version=""1.0""?>\n<Clock xmlns:dt=""urn:schemas-microsoft-com:datatypes""><Description dt:dt=""string"">E-Prime Primary Realtime Clock</Description><StartTime><Timestamp dt:dt=""int"">0</Timestamp><DateUtc dt:dt=""string"">2023-06-08T10:12:16Z</DateUtc></StartTime><FrequencyChanges><FrequencyChange><Frequency dt:dt=""r8"">3312822</Frequency><Timestamp dt:dt=""r8"">31361376376</Timestamp><Current dt:dt=""r8"">0</Current><DateUtc dt:dt=""string"">2023-06-08T10:12:16Z</DateUtc></FrequencyChange></FrequencyChanges></Clock>\n";TMS_Ibrahim-55-4;75.029;1.0.0.561;1;;1297266088;2.0.10.242;2.0.10.242;06/08/2023;08/06/2023 10:12;12:12:16;2.0.10.147;0;;-999999;15;15975;0;1;871;16846;1;1;1;2;1;1;1;BlockProcFischi;BlockList;1;50;0;;-999999;13;19709;0;1;897;20606;1;1;1;1;ProcFischi1;ListBlockFischi;16;1;2;0;0;3;Pr8_B;200;3;ug;3;2;21;1;16;3;1;TrialProc;343;723;Pr8_B;48;1702;1749;ListFischi1;0;;3;201;135035;18;13;1729;136764;497;1;1729;1;421;565;1232;1;1
TMS_Ibrahim;55;4;"<?xml version=""1.0""?>\n<Clock xmlns:dt=""urn:schemas-microsoft-com:datatypes""><Description dt:dt=""string"">E-Prime Primary Realtime Clock</Description><StartTime><Timestamp dt:dt=""int"">0</Timestamp><DateUtc dt:dt=""string"">2023-06-08T10:12:16Z</DateUtc></StartTime><FrequencyChanges><FrequencyChange><Frequency dt:dt=""r8"">3312822</Frequency><Timestamp dt:dt=""r8"">31361376376</Timestamp><Current dt:dt=""r8"">0</Current><DateUtc dt:dt=""string"">2023-06-08T10:12:16Z</DateUtc></FrequencyChange></FrequencyChanges></Clock>\n";TMS_Ibrahim-55-4;75.029;1.0.0.561;1;;1297266088;2.0.10.242;2.0.10.242;06/08/2023;08/06/2023 10:12;12:12:16;2.0.10.147;0;;-999999;15;15975;0;1;871;16846;1;1;1;2;1;1;1;BlockProcFischi;BlockList;1;50;0;;-999999;13;19709;0;1;897;20606;1;1;1;1;ProcFischi1;ListBlockFischi;17;0;2;0;0;3;Pr5_B;;3;ug;1;2;25;1;17;3;1;TrialProc;348;676;Pr5_B;48;1702;1277;ListFischi1;0;;2;203;142506;11;1;434;142940;434;1;1;1;327;272;-433;1;0
TMS_Ibrahim;55;4;"<?xml version=""1.0""?>\n<Clock xmlns:dt=""urn:schemas-microsoft-com:datatypes""><Description dt:dt=""string"">E-Prime Primary Realtime Clock</Description><StartTime><Timestamp dt:dt=""int"">0</Timestamp><DateUtc dt:dt=""string"">2023-06-08T10:12:16Z</DateUtc></StartTime><FrequencyChanges><FrequencyChange><Frequency dt:dt=""r8"">3312822</Frequency><Timestamp dt:dt=""r8"">31361376376</Timestamp><Current dt:dt=""r8"">0</Current><DateUtc dt:dt=""string"">2023-06-08T10:12:16Z</DateUtc></FrequencyChange></FrequencyChanges></Clock>\n";TMS_Ibrahim-55-4;75.029;1.0.0.561;1;;1297266088;2.0.10.242;2.0.10.242;06/08/2023;08/06/2023 10:12;12:12:16;2.0.10.147;0;;-999999;15;15975;0;1;871;16846;1;1;1;2;1;1;1;BlockProcFischi;BlockList;1;50;0;;-999999;13;19709;0;1;897;20606;1;1;1;1;ProcFischi1;ListBlockFischi;18;1;1;1;0;5;Pomod_B;175;4;ug;5;2;63;1;18;4;1;TrialProc;208;1315;Pomod_B;64;1740;1675;ListFischi1;0;;2;203;150398;9;15;1774;152172;334;1;1774;1;476;395;1440;1;1
TMS_Ibrahim;55;4;"<?xml version=""1.0""?>\n<Clock xmlns:dt=""urn:schemas-microsoft-com:datatypes""><Description dt:dt=""string"">E-Prime Primary Realtime Clock</Description><StartTime><Timestamp dt:dt=""int"">0</Timestamp><DateUtc dt:dt=""string"">2023-06-08T10:12:16Z</DateUtc></StartTime><FrequencyChanges><FrequencyChange><Frequency dt:dt=""r8"">3312822</Frequency><Timestamp dt:dt=""r8"">31361376376</Timestamp><Current dt:dt=""r8"">0</Current><DateUtc dt:dt=""string"">2023-06-08T10:12:16Z</DateUtc></FrequencyChange></FrequencyChanges></Clock>\n";TMS_Ibrahim-55-4;75.029;1.0.0.561;1;;1297266088;2.0.10.242;2.0.10.242;06/08/2023;08/06/2023 10:12;12:12:16;2.0.10.147;0;;-999999;15;15975;0;1;871;16846;1;1;1;2;1;1;1;BlockProcFischi;BlockList;1;50;0;;-999999;13;19709;0;1;897;20606;1;1;1;1;ProcFischi1;ListBlockFischi;19;0;2;0;0;5;Pr5_B;;1;op;1;2;9;1;19;1;0;TrialProc;333;675;Pr5_B;64;1740;1274;ListFischi1;0;;2;203;157476;9;15;1832;159308;360;1;1;1;447;455;-359;1;0
TMS_Ibrahim;55;4;"<?xml version=""1.0""?>\n<Clock xmlns:dt=""urn:schemas-microsoft-com:datatypes""><Description dt:dt=""string"">E-Prime Primary Realtime Clock</Description><StartTime><Timestamp dt:dt=""int"">0</Timestamp><DateUtc dt:dt=""string"">2023-06-08T10:12:16Z</DateUtc></StartTime><FrequencyChanges><FrequencyChange><Frequency dt:dt=""r8"">3312822</Frequency><Timestamp dt:dt=""r8"">31361376376</Timestamp><Current dt:dt=""r8"">0</Current><DateUtc dt:dt=""string"">2023-06-08T10:12:16Z</DateUtc></FrequencyChange></FrequencyChanges></Clock>\n";TMS_Ibrahim-55-4;75.029;1.0.0.561;1;;1297266088;2.0.10.242;2.0.10.242;06/08/2023;08/06/2023 10:12;12:12:16;2.0.10.147;0;;-999999;15;15975;0;1;871;16846;1;1;1;2;1;1;1;BlockProcFischi;BlockList;1;50;0;;-999999;13;19709;0;1;897;20606;1;1;1;1;ProcFischi1;ListBlockFischi;20;1;1;1;0;5;Pomod_B;150;4;ug;5;2;64;1;20;4;1;TrialProc;346;1318;Pomod_B;73;1750;1678;ListFischi1;0;;2;201;164617;12;155;2179;166796;675;1;1779;1;436;414;1104;1;1
TMS_Ibrahim;55;4;"<?xml version=""1.0""?>\n<Clock xmlns:dt=""urn:schemas-microsoft-com:datatypes""><Description dt:dt=""string"">E-Prime Primary Realtime Clock</Description><StartTime><Timestamp dt:dt=""int"">0</Timestamp><DateUtc dt:dt=""string"">2023-06-08T10:12:16Z</DateUtc></StartTime><FrequencyChanges><FrequencyChange><Frequency dt:dt=""r8"">3312822</Frequency><Timestamp dt:dt=""r8"">31361376376</Timestamp><Current dt:dt=""r8"">0</Current><DateUtc dt:dt=""string"">2023-06-08T10:12:16Z</DateUtc></FrequencyChange></FrequencyChanges></Clock>\n";TMS_Ibrahim-55-4;75.029;1.0.0.561;1;;1297266088;2.0.10.242;2.0.10.242;06/08/2023;08/06/2023 10:12;12:12:16;2.0.10.147;0;;-999999;15;15975;0;1;871;16846;1;1;1;2;1;1;1;BlockProcFischi;BlockList;1;50;0;;-999999;13;19709;0;1;897;20606;1;1;1;1;ProcFischi1;ListBlockFischi;21;1;1;0;0;5;Po8_B;125;4;ug;5;2;53;1;21;4;1;TrialProc;441;1250;Po8_B;68;1651;1583;ListFischi1;0;;2;203;171628;11;15;1680;173308;336;1;1680;1;407;381;1344;1;1
TMS_Ibrahim;55;4;"<?xml version=""1.0""?>\n<Clock xmlns:dt=""urn:schemas-microsoft-com:datatypes""><Description dt:dt=""string"">E-Prime Primary Realtime Clock</Description><StartTime><Timestamp dt:dt=""int"">0</Timestamp><DateUtc dt:dt=""string"">2023-06-08T10:12:16Z</DateUtc></StartTime><FrequencyChanges><FrequencyChange><Frequency dt:dt=""r8"">3312822</Frequency><Timestamp dt:dt=""r8"">31361376376</Timestamp><Current dt:dt=""r8"">0</Current><DateUtc dt:dt=""string"">2023-06-08T10:12:16Z</DateUtc></FrequencyChange></FrequencyChanges></Clock>\n";TMS_Ibrahim-55-4;75.029;1.0.0.561;1;;1297266088;2.0.10.242;2.0.10.242;06/08/2023;08/06/2023 10:12;12:12:16;2.0.10.147;0;;-999999;15;15975;0;1;871;16846;1;1;1;2;1;1;1;BlockProcFischi;BlockList;1;50;0;;-999999;13;19709;0;1;897;20606;1;1;1;1;ProcFischi1;ListBlockFischi;22;1;2;0;0;3;Pr3_B;175;3;ug;3;2;23;1;22;3;1;TrialProc;298;720;Pr3_B;6;1725;1719;ListFischi1;0;;3;201;179009;14;13;1755;180764;587;1;1755;1;301;228;1168;1;1
TMS_Ibrahim;55;4;"<?xml version=""1.0""?>\n<Clock xmlns:dt=""urn:schemas-microsoft-com:datatypes""><Description dt:dt=""string"">E-Prime Primary Realtime Clock</Description><StartTime><Timestamp dt:dt=""int"">0</Timestamp><DateUtc dt:dt=""string"">2023-06-08T10:12:16Z</DateUtc></StartTime><FrequencyChanges><FrequencyChange><Frequency dt:dt=""r8"">3312822</Frequency><Timestamp dt:dt=""r8"">31361376376</Timestamp><Current dt:dt=""r8"">0</Current><DateUtc dt:dt=""string"">2023-06-08T10:12:16Z</DateUtc></FrequencyChange></FrequencyChanges></Clock>\n";TMS_Ibrahim-55-4;75.029;1.0.0.561;1;;1297266088;2.0.10.242;2.0.10.242;06/08/2023;08/06/2023 10:12;12:12:16;2.0.10.147;0;;-999999;15;15975;0;1;871;16846;1;1;1;2;1;1;1;BlockProcFischi;BlockList;1;50;0;;-999999;13;19709;0;1;897;20606;1;1;1;1;ProcFischi1;ListBlockFischi;23;1;2;0;0;3;Pr4_B;150;3;ug;3;2;29;1;23;3;1;TrialProc;326;683;Pr4_B;155;1411;1255;ListFischi1;0;;2;203;186364;16;13;1439;187803;544;1;1439;1;390;439;895;1;1
TMS_Ibrahim;55;4;"<?xml version=""1.0""?>\n<Clock xmlns:dt=""urn:schemas-microsoft-com:datatypes""><Description dt:dt=""string"">E-Prime Primary Realtime Clock</Description><StartTime><Timestamp dt:dt=""int"">0</Timestamp><DateUtc dt:dt=""string"">2023-06-08T10:12:16Z</DateUtc></StartTime><FrequencyChanges><FrequencyChange><Frequency dt:dt=""r8"">3312822</Frequency><Timestamp dt:dt=""r8"">31361376376</Timestamp><Current dt:dt=""r8"">0</Current><DateUtc dt:dt=""string"">2023-06-08T10:12:16Z</DateUtc></FrequencyChange></FrequencyChanges></Clock>\n";TMS_Ibrahim-55-4;75.029;1.0.0.561;1;;1297266088;2.0.10.242;2.0.10.242;06/08/2023;08/06/2023 10:12;12:12:16;2.0.10.147;0;;-999999;15;15975;0;1;871;16846;1;1;1;2;1;1;1;BlockProcFischi;BlockList;1;50;0;;-999999;13;19709;0;1;897;20606;1;1;1;1;ProcFischi1;ListBlockFischi;24;1;2;0;0;5;Pr2_B;200;1;op;5;2;11;1;24;1;0;TrialProc;344;718;Pr2_B;26;1226;1252;ListFischi1;0;;2;201;193633;11;15;1258;194891;442;1;1258;1;281;440;816;1;1
TMS_Ibrahim;55;4;"<?xml version=""1.0""?>\n<Clock xmlns:dt=""urn:schemas-microsoft-com:datatypes""><Description dt:dt=""string"">E-Prime Primary Realtime Clock</Description><StartTime><Timestamp dt:dt=""int"">0</Timestamp><DateUtc dt:dt=""string"">2023-06-08T10:12:16Z</DateUtc></StartTime><FrequencyChanges><FrequencyChange><Frequency dt:dt=""r8"">3312822</Frequency><Timestamp dt:dt=""r8"">31361376376</Timestamp><Current dt:dt=""r8"">0</Current><DateUtc dt:dt=""string"">2023-06-08T10:12:16Z</DateUtc></FrequencyChange></FrequencyChanges></Clock>\n";TMS_Ibrahim-55-4;75.029;1.0.0.561;1;;1297266088;2.0.10.242;2.0.10.242;06/08/2023;08/06/2023 10:12;12:12:16;2.0.10.147;0;;-999999;15;15975;0;1;871;16846;1;1;1;2;1;1;1;BlockProcFischi;BlockList;1;50;0;;-999999;13;19709;0;1;897;20606;1;1;1;1;ProcFischi1;ListBlockFischi;25;1;2;0;0;3;Pr2_B;150;3;ug;3;2;22;1;25;3;1;TrialProc;446;714;Pr2_B;64;1311;1247;ListFischi1;0;;2;203;201101;7;13;1342;202443;462;1;1342;1;202;234;880;1;1
TMS_Ibrahim;55;4;"<?xml version=""1.0""?>\n<Clock xmlns:dt=""urn:schemas-microsoft-com:datatypes""><Description dt:dt=""string"">E-Prime Primary Realtime Clock</Description><StartTime><Timestamp dt:dt=""int"">0</Timestamp><DateUtc dt:dt=""string"">2023-06-08T10:12:16Z</DateUtc></StartTime><FrequencyChanges><FrequencyChange><Frequency dt:dt=""r8"">3312822</Frequency><Timestamp dt:dt=""r8"">31361376376</Timestamp><Current dt:dt=""r8"">0</Current><DateUtc dt:dt=""string"">2023-06-08T10:12:16Z</DateUtc></FrequencyChange></FrequencyChanges></Clock>\n";TMS_Ibrahim-55-4;75.029;1.0.0.561;1;;1297266088;2.0.10.242;2.0.10.242;06/08/2023;08/06/2023 10:12;12:12:16;2.0.10.147;0;;-999999;15;15975;0;1;871;16846;1;1;1;2;1;1;1;BlockProcFischi;BlockList;1;50;0;;-999999;13;19709;0;1;897;20606;1;1;1;1;ProcFischi1;ListBlockFischi;26;1;1;0;2;3;Po2_B;175;2;op;3;2;38;1;26;2;0;TrialProc;465;1588;Po2_B;217;1599;1816;ListFischi1;0;;2;203;208357;15;13;1622;209979;822;1;1622;1;209;490;800;1;1
TMS_Ibrahim;55;4;"<?xml version=""1.0""?>\n<Clock xmlns:dt=""urn:schemas-microsoft-com:datatypes""><Description dt:dt=""string"">E-Prime Primary Realtime Clock</Description><StartTime><Timestamp dt:dt=""int"">0</Timestamp><DateUtc dt:dt=""string"">2023-06-08T10:12:16Z</DateUtc></StartTime><FrequencyChanges><FrequencyChange><Frequency dt:dt=""r8"">3312822</Frequency><Timestamp dt:dt=""r8"">31361376376</Timestamp><Current dt:dt=""r8"">0</Current><DateUtc dt:dt=""string"">2023-06-08T10:12:16Z</DateUtc></FrequencyChange></FrequencyChanges></Clock>\n";TMS_Ibrahim-55-4;75.029;1.0.0.561;1;;1297266088;2.0.10.242;2.0.10.242;06/08/2023;08/06/2023 10:12;12:12:16;2.0.10.147;0;;-999999;15;15975;0;1;871;16846;1;1;1;2;1;1;1;BlockProcFischi;BlockList;1;50;0;;-999999;13;19709;0;1;897;20606;1;1;1;1;ProcFischi1;ListBlockFischi;27;1;1;0;0;3;Po2_B;200;2;op;3;2;43;1;27;2;0;TrialProc;411;1587;Po2_B;204;1608;1813;ListFischi1;0;;2;201;215943;13;133;2260;218203;580;1;1636;1;108;286;1056;1;1
TMS_Ibrahim;55;4;"<?xml version=""1.0""?>\n<Clock xmlns:dt=""urn:schemas-microsoft-com:datatypes""><Description dt:dt=""string"">E-Prime Primary Realtime Clock</Description><StartTime><Timestamp dt:dt=""int"">0</Timestamp><DateUtc dt:dt=""string"">2023-06-08T10:12:16Z</DateUtc></StartTime><FrequencyChanges><FrequencyChange><Frequency dt:dt=""r8"">3312822</Frequency><Timestamp dt:dt=""r8"">31361376376</Timestamp><Current dt:dt=""r8"">0</Current><DateUtc dt:dt=""string"">2023-06-08T10:12:16Z</DateUtc></FrequencyChange></FrequencyChanges></Clock>\n";TMS_Ibrahim-55-4;75.029;1.0.0.561;1;;1297266088;2.0.10.242;2.0.10.242;06/08/2023;08/06/2023 10:12;12:12:16;2.0.10.147;0;;-999999;15;15975;0;1;871;16846;1;1;1;2;1;1;1;BlockProcFischi;BlockList;1;50;0;;-999999;13;19709;0;1;897;20606;1;1;1;1;ProcFischi1;ListBlockFischi;28;0;2;0;0;3;Pr5_B;;3;ug;1;2;30;1;28;3;1;TrialProc;436;679;Pr5_B;204;1608;1279;ListFischi1;0;;2;203;222780;13;13;1759;224539;495;1;1;1;277;203;-494;1;0
TMS_Ibrahim;55;4;"<?xml version=""1.0""?>\n<Clock xmlns:dt=""urn:schemas-microsoft-com:datatypes""><Description dt:dt=""string"">E-Prime Primary Realtime Clock</Description><StartTime><Timestamp dt:dt=""int"">0</Timestamp><DateUtc dt:dt=""string"">2023-06-08T10:12:16Z</DateUtc></StartTime><FrequencyChanges><FrequencyChange><Frequency dt:dt=""r8"">3312822</Frequency><Timestamp dt:dt=""r8"">31361376376</Timestamp><Current dt:dt=""r8"">0</Current><DateUtc dt:dt=""string"">2023-06-08T10:12:16Z</DateUtc></FrequencyChange></FrequencyChanges></Clock>\n";TMS_Ibrahim-55-4;75.029;1.0.0.561;1;;1297266088;2.0.10.242;2.0.10.242;06/08/2023;08/06/2023 10:12;12:12:16;2.0.10.147;0;;-999999;15;15975;0;1;871;16846;1;1;1;2;1;1;1;BlockProcFischi;BlockList;1;50;0;;-999999;13;19709;0;1;897;20606;1;1;1;1;ProcFischi1;ListBlockFischi;29;1;2;0;0;5;Pr2_B;175;1;op;5;2;1;1;29;1;0;TrialProc;311;722;Pr2_B;381;1636;1255;ListFischi1;0;;2;201;229469;15;15;1662;231131;606;1;1662;1;454;455;1056;1;1
TMS_Ibrahim;55;4;"<?xml version=""1.0""?>\n<Clock xmlns:dt=""urn:schemas-microsoft-com:datatypes""><Description dt:dt=""string"">E-Prime Primary Realtime Clock</Description><StartTime><Timestamp dt:dt=""int"">0</Timestamp><DateUtc dt:dt=""string"">2023-06-08T10:12:16Z</DateUtc></StartTime><FrequencyChanges><FrequencyChange><Frequency dt:dt=""r8"">3312822</Frequency><Timestamp dt:dt=""r8"">31361376376</Timestamp><Current dt:dt=""r8"">0</Current><DateUtc dt:dt=""string"">2023-06-08T10:12:16Z</DateUtc></FrequencyChange></FrequencyChanges></Clock>\n";TMS_Ibrahim-55-4;75.029;1.0.0.561;1;;1297266088;2.0.10.242;2.0.10.242;06/08/2023;08/06/2023 10:12;12:12:16;2.0.10.147;0;;-999999;15;15975;0;1;871;16846;1;1;1;2;1;1;1;BlockProcFischi;BlockList;1;50;0;;-999999;13;19709;0;1;897;20606;1;1;1;1;ProcFischi1;ListBlockFischi;30;1;1;0;0;3;Po3_B;200;2;op;3;2;39;1;30;2;0;TrialProc;351;1325;Po3_B;70;1522;1591;ListFischi1;0;;2;203;236383;19;13;1548;237931;492;1;1548;1;291;406;1056;1;1
TMS_Ibrahim;55;4;"<?xml version=""1.0""?>\n<Clock xmlns:dt=""urn:schemas-microsoft-com:datatypes""><Description dt:dt=""string"">E-Prime Primary Realtime Clock</Description><StartTime><Timestamp dt:dt=""int"">0</Timestamp><DateUtc dt:dt=""string"">2023-06-08T10:12:16Z</DateUtc></StartTime><FrequencyChanges><FrequencyChange><Frequency dt:dt=""r8"">3312822</Frequency><Timestamp dt:dt=""r8"">31361376376</Timestamp><Current dt:dt=""r8"">0</Current><DateUtc dt:dt=""string"">2023-06-08T10:12:16Z</DateUtc></FrequencyChange></FrequencyChanges></Clock>\n";TMS_Ibrahim-55-4;75.029;1.0.0.561;1;;1297266088;2.0.10.242;2.0.10.242;06/08/2023;08/06/2023 10:12;12:12:16;2.0.10.147;0;;-999999;15;15975;0;1;871;16846;1;1;1;2;1;1;1;BlockProcFischi;BlockList;1;50;0;;-999999;13;19709;0;1;897;20606;1;1;1;1;ProcFischi1;ListBlockFischi;31;1;2;0;0;3;Pr3_B;125;3;ug;3;2;28;1;31;3;1;TrialProc;414;723;Pr3_B;171;1893;1723;ListFischi1;0;;2;201;243835;17;13;1919;245754;432;1;1919;1;227;394;1487;1;1
TMS_Ibrahim;55;4;"<?xml version=""1.0""?>\n<Clock xmlns:dt=""urn:schemas-microsoft-com:datatypes""><Description dt:dt=""string"">E-Prime Primary Realtime Clock</Description><StartTime><Timestamp dt:dt=""int"">0</Timestamp><DateUtc dt:dt=""string"">2023-06-08T10:12:16Z</DateUtc></StartTime><FrequencyChanges><FrequencyChange><Frequency dt:dt=""r8"">3312822</Frequency><Timestamp dt:dt=""r8"">31361376376</Timestamp><Current dt:dt=""r8"">0</Current><DateUtc dt:dt=""string"">2023-06-08T10:12:16Z</DateUtc></FrequencyChange></FrequencyChanges></Clock>\n";TMS_Ibrahim-55-4;75.029;1.0.0.561;1;;1297266088;2.0.10.242;2.0.10.242;06/08/2023;08/06/2023 10:12;12:12:16;2.0.10.147;0;;-999999;15;15975;0;1;871;16846;1;1;1;2;1;1;1;BlockProcFischi;BlockList;1;50;0;;-999999;13;19709;0;1;897;20606;1;1;1;1;ProcFischi1;ListBlockFischi;32;1;2;0;1;3;Pr4_B;125;3;ug;3;2;19;1;32;3;1;TrialProc;334;675;Pr4_B;64;1314;1249;ListFischi1;0;;2;203;250721;9;13;1337;252058;201;1;1337;1;172;325;1136;1;1
TMS_Ibrahim;55;4;"<?xml version=""1.0""?>\n<Clock xmlns:dt=""urn:schemas-microsoft-com:datatypes""><Description dt:dt=""string"">E-Prime Primary Realtime Clock</Description><StartTime><Timestamp dt:dt=""int"">0</Timestamp><DateUtc dt:dt=""string"">2023-06-08T10:12:16Z</DateUtc></StartTime><FrequencyChanges><FrequencyChange><Frequency dt:dt=""r8"">3312822</Frequency><Timestamp dt:dt=""r8"">31361376376</Timestamp><Current dt:dt=""r8"">0</Current><DateUtc dt:dt=""string"">2023-06-08T10:12:16Z</DateUtc></FrequencyChange></FrequencyChanges></Clock>\n";TMS_Ibrahim-55-4;75.029;1.0.0.561;1;;1297266088;2.0.10.242;2.0.10.242;06/08/2023;08/06/2023 10:12;12:12:16;2.0.10.147;0;;-999999;15;15975;0;1;871;16846;1;1;1;2;1;1;1;BlockProcFischi;BlockList;1;50;0;;-999999;13;19709;0;1;897;20606;1;1;1;1;ProcFischi1;ListBlockFischi;33;1;2;0;1;5;Pr8_B;175;1;op;5;2;10;1;33;1;0;TrialProc;402;721;Pr8_B;226;1975;1748;ListFischi1;0;;2;201;257899;15;15;1999;259898;575;1;1999;1;333;298;1424;1;1
TMS_Ibrahim;55;4;"<?xml version=""1.0""?>\n<Clock xmlns:dt=""urn:schemas-microsoft-com:datatypes""><Description dt:dt=""string"">E-Prime Primary Realtime Clock</Description><StartTime><Timestamp dt:dt=""int"">0</Timestamp><DateUtc dt:dt=""string"">2023-06-08T10:12:16Z</DateUtc></StartTime><FrequencyChanges><FrequencyChange><Frequency dt:dt=""r8"">3312822</Frequency><Timestamp dt:dt=""r8"">31361376376</Timestamp><Current dt:dt=""r8"">0</Current><DateUtc dt:dt=""string"">2023-06-08T10:12:16Z</DateUtc></FrequencyChange></FrequencyChanges></Clock>\n";TMS_Ibrahim-55-4;75.029;1.0.0.561;1;;1297266088;2.0.10.242;2.0.10.242;06/08/2023;08/06/2023 10:12;12:12:16;2.0.10.147;0;;-999999;15;15975;0;1;871;16846;1;1;1;2;1;1;1;BlockProcFischi;BlockList;1;50;0;;-999999;13;19709;0;1;897;20606;1;1;1;1;ProcFischi1;ListBlockFischi;34;1;1;0;0;5;Po2_B;100;4;ug;5;2;59;1;34;4;1;TrialProc;299;1586;Po2_B;135;1678;1813;ListFischi1;0;;2;203;264792;12;15;1698;266490;386;1;1698;1;461;568;1312;1;1
TMS_Ibrahim;55;4;"<?xml version=""1.0""?>\n<Clock xmlns:dt=""urn:schemas-microsoft-com:datatypes""><Description dt:dt=""string"">E-Prime Primary Realtime Clock</Description><StartTime><Timestamp dt:dt=""int"">0</Timestamp><DateUtc dt:dt=""string"">2023-06-08T10:12:16Z</DateUtc></StartTime><FrequencyChanges><FrequencyChange><Frequency dt:dt=""r8"">3312822</Frequency><Timestamp dt:dt=""r8"">31361376376</Timestamp><Current dt:dt=""r8"">0</Current><DateUtc dt:dt=""string"">2023-06-08T10:12:16Z</DateUtc></FrequencyChange></FrequencyChanges></Clock>\n";TMS_Ibrahim-55-4;75.029;1.0.0.561;1;;1297266088;2.0.10.242;2.0.10.242;06/08/2023;08/06/2023 10:12;12:12:16;2.0.10.147;0;;-999999;15;15975;0;1;871;16846;1;1;1;2;1;1;1;BlockProcFischi;BlockList;1;50;0;;-999999;13;19709;0;1;897;20606;1;1;1;1;ProcFischi1;ListBlockFischi;35;1;2;0;2;5;Pr3_B;175;1;op;5;2;2;1;35;1;0;TrialProc;415;725;Pr3_B;45;1769;1725;ListFischi1;0;;2;201;272184;18;15;1794;273978;499;1;1794;1;110;458;1295;1;1
TMS_Ibrahim;55;4;"<?xml version=""1.0""?>\n<Clock xmlns:dt=""urn:schemas-microsoft-com:datatypes""><Description dt:dt=""string"">E-Prime Primary Realtime Clock</Description><StartTime><Timestamp dt:dt=""int"">0</Timestamp><DateUtc dt:dt=""string"">2023-06-08T10:12:16Z</DateUtc></StartTime><FrequencyChanges><FrequencyChange><Frequency dt:dt=""r8"">3312822</Frequency><Timestamp dt:dt=""r8"">31361376376</Timestamp><Current dt:dt=""r8"">0</Current><DateUtc dt:dt=""string"">2023-06-08T10:12:16Z</DateUtc></FrequencyChange></FrequencyChanges></Clock>\n";TMS_Ibrahim-55-4;75.029;1.0.0.561;1;;1297266088;2.0.10.242;2.0.10.242;06/08/2023;08/06/2023 10:12;12:12:16;2.0.10.147;0;;-999999;15;15975;0;1;871;16846;1;1;1;2;1;1;1;BlockProcFischi;BlockList;1;50;0;;-999999;13;19709;0;1;897;20606;1;1;1;1;ProcFischi1;ListBlockFischi;36;1;1;0;1;5;Po3_B;100;4;ug;5;2;55;1;36;4;1;TrialProc;338;1323;Po3_B;132;1457;1589;ListFischi1;0;;2;203;279370;16;15;1488;280858;400;1;1488;1;342;410;1088;1;1
