ExperimentName;Subject;Session;Clock.Information;DataFile.Basename;Display.RefreshRate;ExperimentVersion;Group;Name;RandomSeed;RuntimeVersion;RuntimeVersionExpected;SessionDate;SessionStartDateTimeUtc;SessionTime;StudioVersion;SyncEprimeKinB1.ACC;SyncEprimeKinB1.CRESP;SyncEprimeKinB1.DurationError;SyncEprimeKinB1.OnsetDelay;SyncEprimeKinB1.OnsetTime;SyncEprimeKinB1.OnsetToOnsetTime;SyncEprimeKinB1.RESP;SyncEprimeKinB1.RT;SyncEprimeKinB1.RTTime;Block;BlockINT_0Fischi_1Suoni;BlockList;BlockList.Cycle;BlockList.Sample;ContatoreSuoni;NumSuono;Procedure[Block];Running[Block];Suonilist;SuonoFinSoglia;SyncEprimeKinFischi1.ACC;SyncEprimeKinFischi1.CRESP;SyncEprimeKinFischi1.DurationError;SyncEprimeKinFischi1.OnsetDelay;SyncEprimeKinFischi1.OnsetTime;SyncEprimeKinFischi1.OnsetToOnsetTime;SyncEprimeKinFischi1.RESP;SyncEprimeKinFischi1.RT;SyncEprimeKinFischi1.RTTime;Trial;ListBlockFischi;ListBlockFischi.Cycle;ListBlockFischi.Sample;Procedure[Trial];Running[Trial];SubTrial;AccSogg1;Avatar_Giu1_Su2;CatchTrial_CORR;ContatoreFinestraSoglia;CorrectResponse;File_Name;FinestraSoglia;IdcondEEG;Istruzione;KeySoggetto1;KeySoggetto2;ListFischi1;ListFischi1.Cycle;ListFischi1.Sample;NumeroSuono;OP_UG;Procedure[SubTrial];Resoconto.RT;RTChange;RTimage;RTNetto;RTSubj;RTTouch;Running[SubTrial];StartGo.ACC;StartGo.CRESP;StartGo.DurationError;StartGo.OnsetDelay;StartGo.OnsetTime;StartGo.OnsetToOnsetTime;StartGo.RESP;StartGo.RT;StartGo.RTTime;StartSoggetto1;StartSoggetto2;StopSoggetto1;StopSoggetto2;StopTrial.RT;tempo;TMSoggetto1;ValiditaTrial;Vincitore
TMS_Ibrahim;56;1;"<?xml version=""1.0""?>\n<Clock xmlns:dt=""urn:schemas-microsoft-com:datatypes""><Description dt:dt=""string"">E-Prime Primary Realtime Clock</Description><StartTime><Timestamp dt:dt=""int"">0</Timestamp><DateUtc dt:dt=""string"">2023-06-14T13:15:33Z</DateUtc></StartTime><FrequencyChanges><FrequencyChange><Frequency dt:dt=""r8"">3312841</Frequency><Timestamp dt:dt=""r8"">64311681407</Timestamp><Current dt:dt=""r8"">0</Current><DateUtc dt:dt=""string"">2023-06-14T13:15:33Z</DateUtc></FrequencyChange></FrequencyChanges></Clock>\n";TMS_Ibrahim-56-1;75.029;1.0.0.561;1;v;-112160739;2.0.10.242;2.0.10.242;06-14-2023;14/06/2023 13:15;15:15:34;2.0.10.147;0;;-999999;22;14974;0;1;1939;16913;1;1;1;2;1;1;1;BlockProcFischi;BlockList;1;75;0;;-999999;13;19651;0;1;1262;20913;1;1;1;1;ProcFischi1;ListBlockFischi;1;1;1;0;0;5;Po5_B;250;4;ug;5;2;52;1;1;4;1;TrialProc;1044;1044;Po5_B;172;1683;1511;ListFischi1;0;;6;210;23882;34;15;1721;25603;361;1;1721;1;834;571;1360;1;1
TMS_Ibrahim;56;1;"<?xml version=""1.0""?>\n<Clock xmlns:dt=""urn:schemas-microsoft-com:datatypes""><Description dt:dt=""string"">E-Prime Primary Realtime Clock</Description><StartTime><Timestamp dt:dt=""int"">0</Timestamp><DateUtc dt:dt=""string"">2023-06-14T13:15:33Z</DateUtc></StartTime><FrequencyChanges><FrequencyChange><Frequency dt:dt=""r8"">3312841</Frequency><Timestamp dt:dt=""r8"">64311681407</Timestamp><Current dt:dt=""r8"">0</Current><DateUtc dt:dt=""string"">2023-06-14T13:15:33Z</DateUtc></FrequencyChange></FrequencyChanges></Clock>\n";TMS_Ibrahim-56-1;75.029;1.0.0.561;1;v;-112160739;2.0.10.242;2.0.10.242;06-14-2023;14/06/2023 13:15;15:15:34;2.0.10.147;0;;-999999;22;14974;0;1;1939;16913;1;1;1;2;1;1;1;BlockProcFischi;BlockList;1;75;0;;-999999;13;19651;0;1;1262;20913;1;1;1;1;ProcFischi1;ListBlockFischi;2;1;2;0;0;5;Pr2_B;250;1;op;5;2;6;1;2;1;0;TrialProc;338;718;Pr2_B;250;1501;1250;ListFischi1;0;;1;207;31557;10;15;1534;33091;414;1;1534;1;731;580;1120;1;1
TMS_Ibrahim;56;1;"<?xml version=""1.0""?>\n<Clock xmlns:dt=""urn:schemas-microsoft-com:datatypes""><Description dt:dt=""string"">E-Prime Primary Realtime Clock</Description><StartTime><Timestamp dt:dt=""int"">0</Timestamp><DateUtc dt:dt=""string"">2023-06-14T13:15:33Z</DateUtc></StartTime><FrequencyChanges><FrequencyChange><Frequency dt:dt=""r8"">3312841</Frequency><Timestamp dt:dt=""r8"">64311681407</Timestamp><Current dt:dt=""r8"">0</Current><DateUtc dt:dt=""string"">2023-06-14T13:15:33Z</DateUtc></FrequencyChange></FrequencyChanges></Clock>\n";TMS_Ibrahim-56-1;75.029;1.0.0.561;1;v;-112160739;2.0.10.242;2.0.10.242;06-14-2023;14/06/2023 13:15;15:15:34;2.0.10.147;0;;-999999;22;14974;0;1;1939;16913;1;1;1;2;1;1;1;BlockProcFischi;BlockList;1;75;0;;-999999;13;19651;0;1;1262;20913;1;1;1;1;ProcFischi1;ListBlockFischi;3;1;2;0;0;3;Pr3_B;250;3;ug;3;2;28;1;3;3;1;TrialProc;251;724;Pr3_B;169;1555;1724;ListFischi1;0;;2;203;38985;19;13;1578;40563;362;1;1578;1;555;288;1216;1;1
TMS_Ibrahim;56;1;"<?xml version=""1.0""?>\n<Clock xmlns:dt=""urn:schemas-microsoft-com:datatypes""><Description dt:dt=""string"">E-Prime Primary Realtime Clock</Description><StartTime><Timestamp dt:dt=""int"">0</Timestamp><DateUtc dt:dt=""string"">2023-06-14T13:15:33Z</DateUtc></StartTime><FrequencyChanges><FrequencyChange><Frequency dt:dt=""r8"">3312841</Frequency><Timestamp dt:dt=""r8"">64311681407</Timestamp><Current dt:dt=""r8"">0</Current><DateUtc dt:dt=""string"">2023-06-14T13:15:33Z</DateUtc></FrequencyChange></FrequencyChanges></Clock>\n";TMS_Ibrahim-56-1;75.029;1.0.0.561;1;v;-112160739;2.0.10.242;2.0.10.242;06-14-2023;14/06/2023 13:15;15:15:34;2.0.10.147;0;;-999999;22;14974;0;1;1939;16913;1;1;1;2;1;1;1;BlockProcFischi;BlockList;1;75;0;;-999999;13;19651;0;1;1262;20913;1;1;1;1;ProcFischi1;ListBlockFischi;4;1;2;0;0;3;Pr5_B;225;3;ug;3;2;25;1;4;3;1;TrialProc;238;676;Pr5_B;159;1433;1275;ListFischi1;0;;3;210;46792;9;13;1467;48259;443;1;1467;1;686;458;1024;1;1
TMS_Ibrahim;56;1;"<?xml version=""1.0""?>\n<Clock xmlns:dt=""urn:schemas-microsoft-com:datatypes""><Description dt:dt=""string"">E-Prime Primary Realtime Clock</Description><StartTime><Timestamp dt:dt=""int"">0</Timestamp><DateUtc dt:dt=""string"">2023-06-14T13:15:33Z</DateUtc></StartTime><FrequencyChanges><FrequencyChange><Frequency dt:dt=""r8"">3312841</Frequency><Timestamp dt:dt=""r8"">64311681407</Timestamp><Current dt:dt=""r8"">0</Current><DateUtc dt:dt=""string"">2023-06-14T13:15:33Z</DateUtc></FrequencyChange></FrequencyChanges></Clock>\n";TMS_Ibrahim-56-1;75.029;1.0.0.561;1;v;-112160739;2.0.10.242;2.0.10.242;06-14-2023;14/06/2023 13:15;15:15:34;2.0.10.147;0;;-999999;22;14974;0;1;1939;16913;1;1;1;2;1;1;1;BlockProcFischi;BlockList;1;75;0;;-999999;13;19651;0;1;1262;20913;1;1;1;1;ProcFischi1;ListBlockFischi;5;1;1;0;0;3;Po2_B;250;2;op;3;2;33;1;5;2;0;TrialProc;233;1584;Po2_B;246;1565;1811;ListFischi1;0;;2;203;54347;11;13;1592;55939;423;1;1592;1;554;437;1169;1;1
TMS_Ibrahim;56;1;"<?xml version=""1.0""?>\n<Clock xmlns:dt=""urn:schemas-microsoft-com:datatypes""><Description dt:dt=""string"">E-Prime Primary Realtime Clock</Description><StartTime><Timestamp dt:dt=""int"">0</Timestamp><DateUtc dt:dt=""string"">2023-06-14T13:15:33Z</DateUtc></StartTime><FrequencyChanges><FrequencyChange><Frequency dt:dt=""r8"">3312841</Frequency><Timestamp dt:dt=""r8"">64311681407</Timestamp><Current dt:dt=""r8"">0</Current><DateUtc dt:dt=""string"">2023-06-14T13:15:33Z</DateUtc></FrequencyChange></FrequencyChanges></Clock>\n";TMS_Ibrahim-56-1;75.029;1.0.0.561;1;v;-112160739;2.0.10.242;2.0.10.242;06-14-2023;14/06/2023 13:15;15:15:34;2.0.10.147;0;;-999999;22;14974;0;1;1939;16913;1;1;1;2;1;1;1;BlockProcFischi;BlockList;1;75;0;;-999999;13;19651;0;1;1262;20913;1;1;1;1;ProcFischi1;ListBlockFischi;6;1;1;0;0;5;Po4_B;225;4;ug;5;2;61;1;6;4;1;TrialProc;234;1352;Po4_B;163;1563;1726;ListFischi1;0;;2;201;62190;18;155;2516;64706;388;1;1588;1;683;413;1200;1;1
TMS_Ibrahim;56;1;"<?xml version=""1.0""?>\n<Clock xmlns:dt=""urn:schemas-microsoft-com:datatypes""><Description dt:dt=""string"">E-Prime Primary Realtime Clock</Description><StartTime><Timestamp dt:dt=""int"">0</Timestamp><DateUtc dt:dt=""string"">2023-06-14T13:15:33Z</DateUtc></StartTime><FrequencyChanges><FrequencyChange><Frequency dt:dt=""r8"">3312841</Frequency><Timestamp dt:dt=""r8"">64311681407</Timestamp><Current dt:dt=""r8"">0</Current><DateUtc dt:dt=""string"">2023-06-14T13:15:33Z</DateUtc></FrequencyChange></FrequencyChanges></Clock>\n";TMS_Ibrahim-56-1;75.029;1.0.0.561;1;v;-112160739;2.0.10.242;2.0.10.242;06-14-2023;14/06/2023 13:15;15:15:34;2.0.10.147;0;;-999999;22;14974;0;1;1939;16913;1;1;1;2;1;1;1;BlockProcFischi;BlockList;1;75;0;;-999999;13;19651;0;1;1262;20913;1;1;1;1;ProcFischi1;ListBlockFischi;7;1;2;0;0;5;Pr4_B;250;1;op;5;2;8;1;7;1;0;TrialProc;212;714;Pr4_B;232;1478;1247;ListFischi1;0;;2;203;68787;6;15;1503;70290;511;1;1503;1;706;387;992;1;1
TMS_Ibrahim;56;1;"<?xml version=""1.0""?>\n<Clock xmlns:dt=""urn:schemas-microsoft-com:datatypes""><Description dt:dt=""string"">E-Prime Primary Realtime Clock</Description><StartTime><Timestamp dt:dt=""int"">0</Timestamp><DateUtc dt:dt=""string"">2023-06-14T13:15:33Z</DateUtc></StartTime><FrequencyChanges><FrequencyChange><Frequency dt:dt=""r8"">3312841</Frequency><Timestamp dt:dt=""r8"">64311681407</Timestamp><Current dt:dt=""r8"">0</Current><DateUtc dt:dt=""string"">2023-06-14T13:15:33Z</DateUtc></FrequencyChange></FrequencyChanges></Clock>\n";TMS_Ibrahim-56-1;75.029;1.0.0.561;1;v;-112160739;2.0.10.242;2.0.10.242;06-14-2023;14/06/2023 13:15;15:15:34;2.0.10.147;0;;-999999;22;14974;0;1;1939;16913;1;1;1;2;1;1;1;BlockProcFischi;BlockList;1;75;0;;-999999;13;19651;0;1;1262;20913;1;1;1;1;ProcFischi1;ListBlockFischi;8;1;2;0;0;3;Pr3_B;200;3;ug;3;2;23;1;8;3;1;TrialProc;207;720;Pr3_B;213;1504;1718;ListFischi1;0;;2;203;76164;12;133;2398;78562;414;1;1534;1;541;381;1120;1;1
TMS_Ibrahim;56;1;"<?xml version=""1.0""?>\n<Clock xmlns:dt=""urn:schemas-microsoft-com:datatypes""><Description dt:dt=""string"">E-Prime Primary Realtime Clock</Description><StartTime><Timestamp dt:dt=""int"">0</Timestamp><DateUtc dt:dt=""string"">2023-06-14T13:15:33Z</DateUtc></StartTime><FrequencyChanges><FrequencyChange><Frequency dt:dt=""r8"">3312841</Frequency><Timestamp dt:dt=""r8"">64311681407</Timestamp><Current dt:dt=""r8"">0</Current><DateUtc dt:dt=""string"">2023-06-14T13:15:33Z</DateUtc></FrequencyChange></FrequencyChanges></Clock>\n";TMS_Ibrahim-56-1;75.029;1.0.0.561;1;v;-112160739;2.0.10.242;2.0.10.242;06-14-2023;14/06/2023 13:15;15:15:34;2.0.10.147;0;;-999999;22;14974;0;1;1939;16913;1;1;1;2;1;1;1;BlockProcFischi;BlockList;1;75;0;;-999999;13;19651;0;1;1262;20913;1;1;1;1;ProcFischi1;ListBlockFischi;9;1;1;0;0;5;Po5_B;200;4;ug;5;2;57;1;9;4;1;TrialProc;180;988;Po5_B;65;1547;1482;ListFischi1;0;;2;201;82880;14;15;1570;84450;402;1;1570;1;466;378;1168;1;1
TMS_Ibrahim;56;1;"<?xml version=""1.0""?>\n<Clock xmlns:dt=""urn:schemas-microsoft-com:datatypes""><Description dt:dt=""string"">E-Prime Primary Realtime Clock</Description><StartTime><Timestamp dt:dt=""int"">0</Timestamp><DateUtc dt:dt=""string"">2023-06-14T13:15:33Z</DateUtc></StartTime><FrequencyChanges><FrequencyChange><Frequency dt:dt=""r8"">3312841</Frequency><Timestamp dt:dt=""r8"">64311681407</Timestamp><Current dt:dt=""r8"">0</Current><DateUtc dt:dt=""string"">2023-06-14T13:15:33Z</DateUtc></FrequencyChange></FrequencyChanges></Clock>\n";TMS_Ibrahim-56-1;75.029;1.0.0.561;1;v;-112160739;2.0.10.242;2.0.10.242;06-14-2023;14/06/2023 13:15;15:15:34;2.0.10.147;0;;-999999;22;14974;0;1;1939;16913;1;1;1;2;1;1;1;BlockProcFischi;BlockList;1;75;0;;-999999;13;19651;0;1;1262;20913;1;1;1;1;ProcFischi1;ListBlockFischi;10;1;1;0;0;5;Po4_B;175;4;ug;5;2;51;1;10;4;1;TrialProc;194;1347;Po4_B;109;1610;1719;ListFischi1;0;;2;203;90079;12;15;1635;91714;403;1;1635;1;413;282;1232;1;1
TMS_Ibrahim;56;1;"<?xml version=""1.0""?>\n<Clock xmlns:dt=""urn:schemas-microsoft-com:datatypes""><Description dt:dt=""string"">E-Prime Primary Realtime Clock</Description><StartTime><Timestamp dt:dt=""int"">0</Timestamp><DateUtc dt:dt=""string"">2023-06-14T13:15:33Z</DateUtc></StartTime><FrequencyChanges><FrequencyChange><Frequency dt:dt=""r8"">3312841</Frequency><Timestamp dt:dt=""r8"">64311681407</Timestamp><Current dt:dt=""r8"">0</Current><DateUtc dt:dt=""string"">2023-06-14T13:15:33Z</DateUtc></FrequencyChange></FrequencyChanges></Clock>\n";TMS_Ibrahim-56-1;75.029;1.0.0.561;1;v;-112160739;2.0.10.242;2.0.10.242;06-14-2023;14/06/2023 13:15;15:15:34;2.0.10.147;0;;-999999;22;14974;0;1;1939;16913;1;1;1;2;1;1;1;BlockProcFischi;BlockList;1;75;0;;-999999;13;19651;0;1;1262;20913;1;1;1;1;ProcFischi1;ListBlockFischi;11;1;1;0;0;3;Po4_B;250;2;op;3;2;45;1;11;2;0;TrialProc;167;1347;Po4_B;106;1827;1721;ListFischi1;0;;2;201;97541;14;13;1852;99393;509;1;1852;1;651;334;1343;1;1
TMS_Ibrahim;56;1;"<?xml version=""1.0""?>\n<Clock xmlns:dt=""urn:schemas-microsoft-com:datatypes""><Description dt:dt=""string"">E-Prime Primary Realtime Clock</Description><StartTime><Timestamp dt:dt=""int"">0</Timestamp><DateUtc dt:dt=""string"">2023-06-14T13:15:33Z</DateUtc></StartTime><FrequencyChanges><FrequencyChange><Frequency dt:dt=""r8"">3312841</Frequency><Timestamp dt:dt=""r8"">64311681407</Timestamp><Current dt:dt=""r8"">0</Current><DateUtc dt:dt=""string"">2023-06-14T13:15:33Z</DateUtc></FrequencyChange></FrequencyChanges></Clock>\n";TMS_Ibrahim-56-1;75.029;1.0.0.561;1;v;-112160739;2.0.10.242;2.0.10.242;06-14-2023;14/06/2023 13:15;15:15:34;2.0.10.147;0;;-999999;22;14974;0;1;1939;16913;1;1;1;2;1;1;1;BlockProcFischi;BlockList;1;75;0;;-999999;13;19651;0;1;1262;20913;1;1;1;1;ProcFischi1;ListBlockFischi;12;1;1;0;0;3;Po2_B;225;2;op;3;2;43;1;12;2;0;TrialProc;206;1585;Po2_B;42;1769;1810;ListFischi1;0;;2;203;104821;11;13;1804;106625;140;1;1804;1;725;381;1664;1;1
TMS_Ibrahim;56;1;"<?xml version=""1.0""?>\n<Clock xmlns:dt=""urn:schemas-microsoft-com:datatypes""><Description dt:dt=""string"">E-Prime Primary Realtime Clock</Description><StartTime><Timestamp dt:dt=""int"">0</Timestamp><DateUtc dt:dt=""string"">2023-06-14T13:15:33Z</DateUtc></StartTime><FrequencyChanges><FrequencyChange><Frequency dt:dt=""r8"">3312841</Frequency><Timestamp dt:dt=""r8"">64311681407</Timestamp><Current dt:dt=""r8"">0</Current><DateUtc dt:dt=""string"">2023-06-14T13:15:33Z</DateUtc></FrequencyChange></FrequencyChanges></Clock>\n";TMS_Ibrahim-56-1;75.029;1.0.0.561;1;v;-112160739;2.0.10.242;2.0.10.242;06-14-2023;14/06/2023 13:15;15:15:34;2.0.10.147;0;;-999999;22;14974;0;1;1939;16913;1;1;1;2;1;1;1;BlockProcFischi;BlockList;1;75;0;;-999999;13;19651;0;1;1262;20913;1;1;1;1;ProcFischi1;ListBlockFischi;13;1;1;1;0;3;Pomod_B;200;2;op;3;2;47;1;13;2;0;TrialProc;214;1315;Pomod_B;327;2003;1675;ListFischi1;0;;2;201;112435;7;133;2990;115425;430;1;2030;1;711;578;1600;1;1
TMS_Ibrahim;56;1;"<?xml version=""1.0""?>\n<Clock xmlns:dt=""urn:schemas-microsoft-com:datatypes""><Description dt:dt=""string"">E-Prime Primary Realtime Clock</Description><StartTime><Timestamp dt:dt=""int"">0</Timestamp><DateUtc dt:dt=""string"">2023-06-14T13:15:33Z</DateUtc></StartTime><FrequencyChanges><FrequencyChange><Frequency dt:dt=""r8"">3312841</Frequency><Timestamp dt:dt=""r8"">64311681407</Timestamp><Current dt:dt=""r8"">0</Current><DateUtc dt:dt=""string"">2023-06-14T13:15:33Z</DateUtc></FrequencyChange></FrequencyChanges></Clock>\n";TMS_Ibrahim-56-1;75.029;1.0.0.561;1;v;-112160739;2.0.10.242;2.0.10.242;06-14-2023;14/06/2023 13:15;15:15:34;2.0.10.147;0;;-999999;22;14974;0;1;1939;16913;1;1;1;2;1;1;1;BlockProcFischi;BlockList;1;75;0;;-999999;13;19651;0;1;1262;20913;1;1;1;1;ProcFischi1;ListBlockFischi;14;1;2;0;0;3;Pr2_B;200;3;ug;3;2;17;1;14;3;1;TrialProc;322;715;Pr2_B;184;1433;1249;ListFischi1;0;;2;203;119592;8;13;1465;121057;425;1;1465;1;1032;575;1040;1;1
TMS_Ibrahim;56;1;"<?xml version=""1.0""?>\n<Clock xmlns:dt=""urn:schemas-microsoft-com:datatypes""><Description dt:dt=""string"">E-Prime Primary Realtime Clock</Description><StartTime><Timestamp dt:dt=""int"">0</Timestamp><DateUtc dt:dt=""string"">2023-06-14T13:15:33Z</DateUtc></StartTime><FrequencyChanges><FrequencyChange><Frequency dt:dt=""r8"">3312841</Frequency><Timestamp dt:dt=""r8"">64311681407</Timestamp><Current dt:dt=""r8"">0</Current><DateUtc dt:dt=""string"">2023-06-14T13:15:33Z</DateUtc></FrequencyChange></FrequencyChanges></Clock>\n";TMS_Ibrahim-56-1;75.029;1.0.0.561;1;v;-112160739;2.0.10.242;2.0.10.242;06-14-2023;14/06/2023 13:15;15:15:34;2.0.10.147;0;;-999999;22;14974;0;1;1939;16913;1;1;1;2;1;1;1;BlockProcFischi;BlockList;1;75;0;;-999999;13;19651;0;1;1262;20913;1;1;1;1;ProcFischi1;ListBlockFischi;15;1;1;0;1;3;Po3_B;200;2;op;3;2;39;1;15;2;0;TrialProc;255;1324;Po3_B;41;1549;1591;ListFischi1;0;;2;201;126834;16;13;1583;128417;369;1;1583;1;687;482;1214;1;1
TMS_Ibrahim;56;1;"<?xml version=""1.0""?>\n<Clock xmlns:dt=""urn:schemas-microsoft-com:datatypes""><Description dt:dt=""string"">E-Prime Primary Realtime Clock</Description><StartTime><Timestamp dt:dt=""int"">0</Timestamp><DateUtc dt:dt=""string"">2023-06-14T13:15:33Z</DateUtc></StartTime><FrequencyChanges><FrequencyChange><Frequency dt:dt=""r8"">3312841</Frequency><Timestamp dt:dt=""r8"">64311681407</Timestamp><Current dt:dt=""r8"">0</Current><DateUtc dt:dt=""string"">2023-06-14T13:15:33Z</DateUtc></FrequencyChange></FrequencyChanges></Clock>\n";TMS_Ibrahim-56-1;75.029;1.0.0.561;1;v;-112160739;2.0.10.242;2.0.10.242;06-14-2023;14/06/2023 13:15;15:15:34;2.0.10.147;0;;-999999;22;14974;0;1;1939;16913;1;1;1;2;1;1;1;BlockProcFischi;BlockList;1;75;0;;-999999;13;19651;0;1;1262;20913;1;1;1;1;ProcFischi1;ListBlockFischi;16;0;1;0;0;3;Po8_B;;2;op;1;2;37;1;16;2;0;TrialProc;196;1249;Po8_B;41;1549;1583;ListFischi1;0;;2;203;134412;9;13;2597;137009;421;1;1;1;537;237;-420;1;0
TMS_Ibrahim;56;1;"<?xml version=""1.0""?>\n<Clock xmlns:dt=""urn:schemas-microsoft-com:datatypes""><Description dt:dt=""string"">E-Prime Primary Realtime Clock</Description><StartTime><Timestamp dt:dt=""int"">0</Timestamp><DateUtc dt:dt=""string"">2023-06-14T13:15:33Z</DateUtc></StartTime><FrequencyChanges><FrequencyChange><Frequency dt:dt=""r8"">3312841</Frequency><Timestamp dt:dt=""r8"">64311681407</Timestamp><Current dt:dt=""r8"">0</Current><DateUtc dt:dt=""string"">2023-06-14T13:15:33Z</DateUtc></FrequencyChange></FrequencyChanges></Clock>\n";TMS_Ibrahim-56-1;75.029;1.0.0.561;1;v;-112160739;2.0.10.242;2.0.10.242;06-14-2023;14/06/2023 13:15;15:15:34;2.0.10.147;0;;-999999;22;14974;0;1;1939;16913;1;1;1;2;1;1;1;BlockProcFischi;BlockList;1;75;0;;-999999;13;19651;0;1;1262;20913;1;1;1;1;ProcFischi1;ListBlockFischi;17;1;1;0;0;5;Po2_B;150;4;ug;5;2;49;1;17;4;1;TrialProc;273;1585;Po2_B;90;1722;1812;ListFischi1;0;;2;203;142979;12;155;2013;144992;445;1;1741;1;573;227;1296;1;1
TMS_Ibrahim;56;1;"<?xml version=""1.0""?>\n<Clock xmlns:dt=""urn:schemas-microsoft-com:datatypes""><Description dt:dt=""string"">E-Prime Primary Realtime Clock</Description><StartTime><Timestamp dt:dt=""int"">0</Timestamp><DateUtc dt:dt=""string"">2023-06-14T13:15:33Z</DateUtc></StartTime><FrequencyChanges><FrequencyChange><Frequency dt:dt=""r8"">3312841</Frequency><Timestamp dt:dt=""r8"">64311681407</Timestamp><Current dt:dt=""r8"">0</Current><DateUtc dt:dt=""string"">2023-06-14T13:15:33Z</DateUtc></FrequencyChange></FrequencyChanges></Clock>\n";TMS_Ibrahim-56-1;75.029;1.0.0.561;1;v;-112160739;2.0.10.242;2.0.10.242;06-14-2023;14/06/2023 13:15;15:15:34;2.0.10.147;0;;-999999;22;14974;0;1;1939;16913;1;1;1;2;1;1;1;BlockProcFischi;BlockList;1;75;0;;-999999;13;19651;0;1;1262;20913;1;1;1;1;ProcFischi1;ListBlockFischi;18;1;1;0;0;3;Po2_B;175;2;op;3;2;38;1;18;2;0;TrialProc;387;1589;Po2_B;21;1795;1816;ListFischi1;0;;2;201;150440;15;13;1816;152256;616;1;1816;1;1224;469;1200;1;1
TMS_Ibrahim;56;1;"<?xml version=""1.0""?>\n<Clock xmlns:dt=""urn:schemas-microsoft-com:datatypes""><Description dt:dt=""string"">E-Prime Primary Realtime Clock</Description><StartTime><Timestamp dt:dt=""int"">0</Timestamp><DateUtc dt:dt=""string"">2023-06-14T13:15:33Z</DateUtc></StartTime><FrequencyChanges><FrequencyChange><Frequency dt:dt=""r8"">3312841</Frequency><Timestamp dt:dt=""r8"">64311681407</Timestamp><Current dt:dt=""r8"">0</Current><DateUtc dt:dt=""string"">2023-06-14T13:15:33Z</DateUtc></FrequencyChange></FrequencyChanges></Clock>\n";TMS_Ibrahim-56-1;75.029;1.0.0.561;1;v;-112160739;2.0.10.242;2.0.10.242;06-14-2023;14/06/2023 13:15;15:15:34;2.0.10.147;0;;-999999;22;14974;0;1;1939;16913;1;1;1;2;1;1;1;BlockProcFischi;BlockList;1;75;0;;-999999;13;19651;0;1;1262;20913;1;1;1;1;ProcFischi1;ListBlockFischi;19;1;1;0;0;3;Po5_B;150;2;op;3;2;46;1;19;2;0;TrialProc;247;992;Po5_B;61;1546;1484;ListFischi1;0;;2;203;157635;17;13;1565;159200;397;1;1565;1;518;422;1168;1;1
TMS_Ibrahim;56;1;"<?xml version=""1.0""?>\n<Clock xmlns:dt=""urn:schemas-microsoft-com:datatypes""><Description dt:dt=""string"">E-Prime Primary Realtime Clock</Description><StartTime><Timestamp dt:dt=""int"">0</Timestamp><DateUtc dt:dt=""string"">2023-06-14T13:15:33Z</DateUtc></StartTime><FrequencyChanges><FrequencyChange><Frequency dt:dt=""r8"">3312841</Frequency><Timestamp dt:dt=""r8"">64311681407</Timestamp><Current dt:dt=""r8"">0</Current><DateUtc dt:dt=""string"">2023-06-14T13:15:33Z</DateUtc></FrequencyChange></FrequencyChanges></Clock>\n";TMS_Ibrahim-56-1;75.029;1.0.0.561;1;v;-112160739;2.0.10.242;2.0.10.242;06-14-2023;14/06/2023 13:15;15:15:34;2.0.10.147;0;;-999999;22;14974;0;1;1939;16913;1;1;1;2;1;1;1;BlockProcFischi;BlockList;1;75;0;;-999999;13;19651;0;1;1262;20913;1;1;1;1;ProcFischi1;ListBlockFischi;20;1;2;0;0;3;Pr2_B;200;3;ug;3;2;22;1;20;3;1;TrialProc;207;716;Pr2_B;72;1322;1250;ListFischi1;0;;3;201;164934;8;13;1354;166288;394;1;1354;1;463;313;960;1;1
TMS_Ibrahim;56;1;"<?xml version=""1.0""?>\n<Clock xmlns:dt=""urn:schemas-microsoft-com:datatypes""><Description dt:dt=""string"">E-Prime Primary Realtime Clock</Description><StartTime><Timestamp dt:dt=""int"">0</Timestamp><DateUtc dt:dt=""string"">2023-06-14T13:15:33Z</DateUtc></StartTime><FrequencyChanges><FrequencyChange><Frequency dt:dt=""r8"">3312841</Frequency><Timestamp dt:dt=""r8"">64311681407</Timestamp><Current dt:dt=""r8"">0</Current><DateUtc dt:dt=""string"">2023-06-14T13:15:33Z</DateUtc></FrequencyChange></FrequencyChanges></Clock>\n";TMS_Ibrahim-56-1;75.029;1.0.0.561;1;v;-112160739;2.0.10.242;2.0.10.242;06-14-2023;14/06/2023 13:15;15:15:34;2.0.10.147;0;;-999999;22;14974;0;1;1939;16913;1;1;1;2;1;1;1;BlockProcFischi;BlockList;1;75;0;;-999999;13;19651;0;1;1262;20913;1;1;1;1;ProcFischi1;ListBlockFischi;21;1;1;0;0;5;Po3_B;125;4;ug;5;2;55;1;21;4;1;TrialProc;191;1323;Po3_B;6;1583;1589;ListFischi1;0;;2;203;172537;16;15;1607;174144;375;1;1607;1;498;539;1232;1;1
TMS_Ibrahim;56;1;"<?xml version=""1.0""?>\n<Clock xmlns:dt=""urn:schemas-microsoft-com:datatypes""><Description dt:dt=""string"">E-Prime Primary Realtime Clock</Description><StartTime><Timestamp dt:dt=""int"">0</Timestamp><DateUtc dt:dt=""string"">2023-06-14T13:15:33Z</DateUtc></StartTime><FrequencyChanges><FrequencyChange><Frequency dt:dt=""r8"">3312841</Frequency><Timestamp dt:dt=""r8"">64311681407</Timestamp><Current dt:dt=""r8"">0</Current><DateUtc dt:dt=""string"">2023-06-14T13:15:33Z</DateUtc></FrequencyChange></FrequencyChanges></Clock>\n";TMS_Ibrahim-56-1;75.029;1.0.0.561;1;v;-112160739;2.0.10.242;2.0.10.242;06-14-2023;14/06/2023 13:15;15:15:34;2.0.10.147;0;;-999999;22;14974;0;1;1939;16913;1;1;1;2;1;1;1;BlockProcFischi;BlockList;1;75;0;;-999999;13;19651;0;1;1262;20913;1;1;1;1;ProcFischi1;ListBlockFischi;22;1;2;0;0;5;Pr8_B;250;1;op;5;2;5;1;22;1;0;TrialProc;184;721;Pr8_B;141;1889;1747;ListFischi1;0;;2;201;179910;13;15;1914;181824;428;1;1914;1;443;528;1486;1;1
TMS_Ibrahim;56;1;"<?xml version=""1.0""?>\n<Clock xmlns:dt=""urn:schemas-microsoft-com:datatypes""><Description dt:dt=""string"">E-Prime Primary Realtime Clock</Description><StartTime><Timestamp dt:dt=""int"">0</Timestamp><DateUtc dt:dt=""string"">2023-06-14T13:15:33Z</DateUtc></StartTime><FrequencyChanges><FrequencyChange><Frequency dt:dt=""r8"">3312841</Frequency><Timestamp dt:dt=""r8"">64311681407</Timestamp><Current dt:dt=""r8"">0</Current><DateUtc dt:dt=""string"">2023-06-14T13:15:33Z</DateUtc></FrequencyChange></FrequencyChanges></Clock>\n";TMS_Ibrahim-56-1;75.029;1.0.0.561;1;v;-112160739;2.0.10.242;2.0.10.242;06-14-2023;14/06/2023 13:15;15:15:34;2.0.10.147;0;;-999999;22;14974;0;1;1939;16913;1;1;1;2;1;1;1;BlockProcFischi;BlockList;1;75;0;;-999999;13;19651;0;1;1262;20913;1;1;1;1;ProcFischi1;ListBlockFischi;23;1;2;0;0;3;Pr4_B;175;3;ug;3;2;29;1;23;3;1;TrialProc;176;678;Pr4_B;67;1316;1250;ListFischi1;0;;2;203;187150;11;13;1345;188495;417;1;1345;1;775;212;928;1;1
TMS_Ibrahim;56;1;"<?xml version=""1.0""?>\n<Clock xmlns:dt=""urn:schemas-microsoft-com:datatypes""><Description dt:dt=""string"">E-Prime Primary Realtime Clock</Description><StartTime><Timestamp dt:dt=""int"">0</Timestamp><DateUtc dt:dt=""string"">2023-06-14T13:15:33Z</DateUtc></StartTime><FrequencyChanges><FrequencyChange><Frequency dt:dt=""r8"">3312841</Frequency><Timestamp dt:dt=""r8"">64311681407</Timestamp><Current dt:dt=""r8"">0</Current><DateUtc dt:dt=""string"">2023-06-14T13:15:33Z</DateUtc></FrequencyChange></FrequencyChanges></Clock>\n";TMS_Ibrahim-56-1;75.029;1.0.0.561;1;v;-112160739;2.0.10.242;2.0.10.242;06-14-2023;14/06/2023 13:15;15:15:34;2.0.10.147;0;;-999999;22;14974;0;1;1939;16913;1;1;1;2;1;1;1;BlockProcFischi;BlockList;1;75;0;;-999999;13;19651;0;1;1262;20913;1;1;1;1;ProcFischi1;ListBlockFischi;24;1;2;0;0;3;Pr5_B;150;3;ug;3;2;20;1;24;3;1;TrialProc;216;686;Pr5_B;154;1438;1285;ListFischi1;0;;2;201;194447;18;13;1472;195919;353;1;1472;1;455;594;1119;1;1
TMS_Ibrahim;56;1;"<?xml version=""1.0""?>\n<Clock xmlns:dt=""urn:schemas-microsoft-com:datatypes""><Description dt:dt=""string"">E-Prime Primary Realtime Clock</Description><StartTime><Timestamp dt:dt=""int"">0</Timestamp><DateUtc dt:dt=""string"">2023-06-14T13:15:33Z</DateUtc></StartTime><FrequencyChanges><FrequencyChange><Frequency dt:dt=""r8"">3312841</Frequency><Timestamp dt:dt=""r8"">64311681407</Timestamp><Current dt:dt=""r8"">0</Current><DateUtc dt:dt=""string"">2023-06-14T13:15:33Z</DateUtc></FrequencyChange></FrequencyChanges></Clock>\n";TMS_Ibrahim-56-1;75.029;1.0.0.561;1;v;-112160739;2.0.10.242;2.0.10.242;06-14-2023;14/06/2023 13:15;15:15:34;2.0.10.147;0;;-999999;22;14974;0;1;1939;16913;1;1;1;2;1;1;1;BlockProcFischi;BlockList;1;75;0;;-999999;13;19651;0;1;1262;20913;1;1;1;1;ProcFischi1;ListBlockFischi;25;1;1;0;0;5;Po2_B;100;4;ug;5;2;59;1;25;4;1;TrialProc;192;1583;Po2_B;266;1543;1809;ListFischi1;0;;2;203;201614;8;155;2529;204143;609;1;1569;1;464;514;960;1;1
TMS_Ibrahim;56;1;"<?xml version=""1.0""?>\n<Clock xmlns:dt=""urn:schemas-microsoft-com:datatypes""><Description dt:dt=""string"">E-Prime Primary Realtime Clock</Description><StartTime><Timestamp dt:dt=""int"">0</Timestamp><DateUtc dt:dt=""string"">2023-06-14T13:15:33Z</DateUtc></StartTime><FrequencyChanges><FrequencyChange><Frequency dt:dt=""r8"">3312841</Frequency><Timestamp dt:dt=""r8"">64311681407</Timestamp><Current dt:dt=""r8"">0</Current><DateUtc dt:dt=""string"">2023-06-14T13:15:33Z</DateUtc></FrequencyChange></FrequencyChanges></Clock>\n";TMS_Ibrahim-56-1;75.029;1.0.0.561;1;v;-112160739;2.0.10.242;2.0.10.242;06-14-2023;14/06/2023 13:15;15:15:34;2.0.10.147;0;;-999999;22;14974;0;1;1939;16913;1;1;1;2;1;1;1;BlockProcFischi;BlockList;1;75;0;;-999999;13;19651;0;1;1262;20913;1;1;1;1;ProcFischi1;ListBlockFischi;26;1;2;0;0;3;Pr5_B;150;3;ug;3;2;30;1;26;3;1;TrialProc;198;674;Pr5_B;227;1500;1273;ListFischi1;0;;2;201;208307;6;13;1532;209839;460;1;1532;1;492;281;1072;1;1
TMS_Ibrahim;56;1;"<?xml version=""1.0""?>\n<Clock xmlns:dt=""urn:schemas-microsoft-com:datatypes""><Description dt:dt=""string"">E-Prime Primary Realtime Clock</Description><StartTime><Timestamp dt:dt=""int"">0</Timestamp><DateUtc dt:dt=""string"">2023-06-14T13:15:33Z</DateUtc></StartTime><FrequencyChanges><FrequencyChange><Frequency dt:dt=""r8"">3312841</Frequency><Timestamp dt:dt=""r8"">64311681407</Timestamp><Current dt:dt=""r8"">0</Current><DateUtc dt:dt=""string"">2023-06-14T13:15:33Z</DateUtc></FrequencyChange></FrequencyChanges></Clock>\n";TMS_Ibrahim-56-1;75.029;1.0.0.561;1;v;-112160739;2.0.10.242;2.0.10.242;06-14-2023;14/06/2023 13:15;15:15:34;2.0.10.147;0;;-999999;22;14974;0;1;1939;16913;1;1;1;2;1;1;1;BlockProcFischi;BlockList;1;75;0;;-999999;13;19651;0;1;1262;20913;1;1;1;1;ProcFischi1;ListBlockFischi;27;1;2;0;0;5;Pr8_B;225;1;op;5;2;10;1;27;1;0;TrialProc;252;724;Pr8_B;28;1723;1750;ListFischi1;0;;2;203;215360;17;15;1743;217103;532;1;1743;1;610;314;1211;1;1
TMS_Ibrahim;56;1;"<?xml version=""1.0""?>\n<Clock xmlns:dt=""urn:schemas-microsoft-com:datatypes""><Description dt:dt=""string"">E-Prime Primary Realtime Clock</Description><StartTime><Timestamp dt:dt=""int"">0</Timestamp><DateUtc dt:dt=""string"">2023-06-14T13:15:33Z</DateUtc></StartTime><FrequencyChanges><FrequencyChange><Frequency dt:dt=""r8"">3312841</Frequency><Timestamp dt:dt=""r8"">64311681407</Timestamp><Current dt:dt=""r8"">0</Current><DateUtc dt:dt=""string"">2023-06-14T13:15:33Z</DateUtc></FrequencyChange></FrequencyChanges></Clock>\n";TMS_Ibrahim-56-1;75.029;1.0.0.561;1;v;-112160739;2.0.10.242;2.0.10.242;06-14-2023;14/06/2023 13:15;15:15:34;2.0.10.147;0;;-999999;22;14974;0;1;1939;16913;1;1;1;2;1;1;1;BlockProcFischi;BlockList;1;75;0;;-999999;13;19651;0;1;1262;20913;1;1;1;1;ProcFischi1;ListBlockFischi;28;1;2;0;1;3;Pr8_B;150;3;ug;3;2;21;1;28;3;1;TrialProc;206;723;Pr8_B;14;1736;1750;ListFischi1;0;;2;201;222626;15;13;1757;224383;669;1;1757;1;583;480;1088;1;1
TMS_Ibrahim;56;1;"<?xml version=""1.0""?>\n<Clock xmlns:dt=""urn:schemas-microsoft-com:datatypes""><Description dt:dt=""string"">E-Prime Primary Realtime Clock</Description><StartTime><Timestamp dt:dt=""int"">0</Timestamp><DateUtc dt:dt=""string"">2023-06-14T13:15:33Z</DateUtc></StartTime><FrequencyChanges><FrequencyChange><Frequency dt:dt=""r8"">3312841</Frequency><Timestamp dt:dt=""r8"">64311681407</Timestamp><Current dt:dt=""r8"">0</Current><DateUtc dt:dt=""string"">2023-06-14T13:15:33Z</DateUtc></FrequencyChange></FrequencyChanges></Clock>\n";TMS_Ibrahim-56-1;75.029;1.0.0.561;1;v;-112160739;2.0.10.242;2.0.10.242;06-14-2023;14/06/2023 13:15;15:15:34;2.0.10.147;0;;-999999;22;14974;0;1;1939;16913;1;1;1;2;1;1;1;BlockProcFischi;BlockList;1;75;0;;-999999;13;19651;0;1;1262;20913;1;1;1;1;ProcFischi1;ListBlockFischi;29;1;2;0;0;3;Pr4_B;125;3;ug;3;2;24;1;29;3;1;TrialProc;214;679;Pr4_B;95;1348;1252;ListFischi1;0;;2;203;230040;11;13;1382;231422;454;1;1382;1;625;335;928;1;1
TMS_Ibrahim;56;1;"<?xml version=""1.0""?>\n<Clock xmlns:dt=""urn:schemas-microsoft-com:datatypes""><Description dt:dt=""string"">E-Prime Primary Realtime Clock</Description><StartTime><Timestamp dt:dt=""int"">0</Timestamp><DateUtc dt:dt=""string"">2023-06-14T13:15:33Z</DateUtc></StartTime><FrequencyChanges><FrequencyChange><Frequency dt:dt=""r8"">3312841</Frequency><Timestamp dt:dt=""r8"">64311681407</Timestamp><Current dt:dt=""r8"">0</Current><DateUtc dt:dt=""string"">2023-06-14T13:15:33Z</DateUtc></FrequencyChange></FrequencyChanges></Clock>\n";TMS_Ibrahim-56-1;75.029;1.0.0.561;1;v;-112160739;2.0.10.242;2.0.10.242;06-14-2023;14/06/2023 13:15;15:15:34;2.0.10.147;0;;-999999;22;14974;0;1;1939;16913;1;1;1;2;1;1;1;BlockProcFischi;BlockList;1;75;0;;-999999;13;19651;0;1;1262;20913;1;1;1;1;ProcFischi1;ListBlockFischi;30;1;1;0;1;5;Po2_B;100;4;ug;5;2;54;1;30;4;1;TrialProc;228;1581;Po2_B;231;1577;1808;ListFischi1;0;;2;201;237321;7;155;1957;239278;485;1;1605;1;447;505;1120;1;1
TMS_Ibrahim;56;1;"<?xml version=""1.0""?>\n<Clock xmlns:dt=""urn:schemas-microsoft-com:datatypes""><Description dt:dt=""string"">E-Prime Primary Realtime Clock</Description><StartTime><Timestamp dt:dt=""int"">0</Timestamp><DateUtc dt:dt=""string"">2023-06-14T13:15:33Z</DateUtc></StartTime><FrequencyChanges><FrequencyChange><Frequency dt:dt=""r8"">3312841</Frequency><Timestamp dt:dt=""r8"">64311681407</Timestamp><Current dt:dt=""r8"">0</Current><DateUtc dt:dt=""string"">2023-06-14T13:15:33Z</DateUtc></FrequencyChange></FrequencyChanges></Clock>\n";TMS_Ibrahim-56-1;75.029;1.0.0.561;1;v;-112160739;2.0.10.242;2.0.10.242;06-14-2023;14/06/2023 13:15;15:15:34;2.0.10.147;0;;-999999;22;14974;0;1;1939;16913;1;1;1;2;1;1;1;BlockProcFischi;BlockList;1;75;0;;-999999;13;19651;0;1;1262;20913;1;1;1;1;ProcFischi1;ListBlockFischi;31;1;2;0;0;5;Pr4_B;200;1;op;5;2;3;1;31;1;0;TrialProc;247;682;Pr4_B;162;1416;1255;ListFischi1;0;;2;203;244593;12;155;1533;246126;430;1;1437;1;606;519;1007;1;1
TMS_Ibrahim;56;1;"<?xml version=""1.0""?>\n<Clock xmlns:dt=""urn:schemas-microsoft-com:datatypes""><Description dt:dt=""string"">E-Prime Primary Realtime Clock</Description><StartTime><Timestamp dt:dt=""int"">0</Timestamp><DateUtc dt:dt=""string"">2023-06-14T13:15:33Z</DateUtc></StartTime><FrequencyChanges><FrequencyChange><Frequency dt:dt=""r8"">3312841</Frequency><Timestamp dt:dt=""r8"">64311681407</Timestamp><Current dt:dt=""r8"">0</Current><DateUtc dt:dt=""string"">2023-06-14T13:15:33Z</DateUtc></FrequencyChange></FrequencyChanges></Clock>\n";TMS_Ibrahim-56-1;75.029;1.0.0.561;1;v;-112160739;2.0.10.242;2.0.10.242;06-14-2023;14/06/2023 13:15;15:15:34;2.0.10.147;0;;-999999;22;14974;0;1;1939;16913;1;1;1;2;1;1;1;BlockProcFischi;BlockList;1;75;0;;-999999;13;19651;0;1;1262;20913;1;1;1;1;ProcFischi1;ListBlockFischi;32;1;1;0;0;3;Po4_B;125;2;op;3;2;35;1;32;2;0;TrialProc;254;1348;Po4_B;261;1461;1722;ListFischi1;0;;2;201;251709;14;13;1489;253198;418;1;1489;1;500;234;1071;1;1
TMS_Ibrahim;56;1;"<?xml version=""1.0""?>\n<Clock xmlns:dt=""urn:schemas-microsoft-com:datatypes""><Description dt:dt=""string"">E-Prime Primary Realtime Clock</Description><StartTime><Timestamp dt:dt=""int"">0</Timestamp><DateUtc dt:dt=""string"">2023-06-14T13:15:33Z</DateUtc></StartTime><FrequencyChanges><FrequencyChange><Frequency dt:dt=""r8"">3312841</Frequency><Timestamp dt:dt=""r8"">64311681407</Timestamp><Current dt:dt=""r8"">0</Current><DateUtc dt:dt=""string"">2023-06-14T13:15:33Z</DateUtc></FrequencyChange></FrequencyChanges></Clock>\n";TMS_Ibrahim-56-1;75.029;1.0.0.561;1;v;-112160739;2.0.10.242;2.0.10.242;06-14-2023;14/06/2023 13:15;15:15:34;2.0.10.147;0;;-999999;22;14974;0;1;1939;16913;1;1;1;2;1;1;1;BlockProcFischi;BlockList;1;75;0;;-999999;13;19651;0;1;1262;20913;1;1;1;1;ProcFischi1;ListBlockFischi;33;1;1;0;1;3;Po3_B;125;2;op;3;2;34;1;33;2;0;TrialProc;242;1324;Po3_B;179;1413;1591;ListFischi1;0;;2;203;259355;18;13;1443;260798;339;1;1443;1;627;277;1104;1;1
TMS_Ibrahim;56;1;"<?xml version=""1.0""?>\n<Clock xmlns:dt=""urn:schemas-microsoft-com:datatypes""><Description dt:dt=""string"">E-Prime Primary Realtime Clock</Description><StartTime><Timestamp dt:dt=""int"">0</Timestamp><DateUtc dt:dt=""string"">2023-06-14T13:15:33Z</DateUtc></StartTime><FrequencyChanges><FrequencyChange><Frequency dt:dt=""r8"">3312841</Frequency><Timestamp dt:dt=""r8"">64311681407</Timestamp><Current dt:dt=""r8"">0</Current><DateUtc dt:dt=""string"">2023-06-14T13:15:33Z</DateUtc></FrequencyChange></FrequencyChanges></Clock>\n";TMS_Ibrahim-56-1;75.029;1.0.0.561;1;v;-112160739;2.0.10.242;2.0.10.242;06-14-2023;14/06/2023 13:15;15:15:34;2.0.10.147;0;;-999999;22;14974;0;1;1939;16913;1;1;1;2;1;1;1;BlockProcFischi;BlockList;1;75;0;;-999999;13;19651;0;1;1262;20913;1;1;1;1;ProcFischi1;ListBlockFischi;34;1;2;0;0;5;Pr5_B;175;1;op;5;2;14;1;34;1;0;TrialProc;251;684;Pr5_B;234;1518;1284;ListFischi1;0;;2;201;266913;17;155;2509;269422;301;1;1549;1;640;313;1248;1;1
TMS_Ibrahim;56;1;"<?xml version=""1.0""?>\n<Clock xmlns:dt=""urn:schemas-microsoft-com:datatypes""><Description dt:dt=""string"">E-Prime Primary Realtime Clock</Description><StartTime><Timestamp dt:dt=""int"">0</Timestamp><DateUtc dt:dt=""string"">2023-06-14T13:15:33Z</DateUtc></StartTime><FrequencyChanges><FrequencyChange><Frequency dt:dt=""r8"">3312841</Frequency><Timestamp dt:dt=""r8"">64311681407</Timestamp><Current dt:dt=""r8"">0</Current><DateUtc dt:dt=""string"">2023-06-14T13:15:33Z</DateUtc></FrequencyChange></FrequencyChanges></Clock>\n";TMS_Ibrahim-56-1;75.029;1.0.0.561;1;v;-112160739;2.0.10.242;2.0.10.242;06-14-2023;14/06/2023 13:15;15:15:34;2.0.10.147;0;;-999999;22;14974;0;1;1939;16913;1;1;1;2;1;1;1;BlockProcFischi;BlockList;1;75;0;;-999999;13;19651;0;1;1262;20913;1;1;1;1;ProcFischi1;ListBlockFischi;35;1;1;1;2;5;Pomod_B;100;4;ug;5;2;63;1;35;4;1;TrialProc;262;1319;Pomod_B;330;2008;1679;ListFischi1;0;;2;203;274022;12;15;2039;276061;359;1;2039;1;1249;525;1680;1;1
TMS_Ibrahim;56;1;"<?xml version=""1.0""?>\n<Clock xmlns:dt=""urn:schemas-microsoft-com:datatypes""><Description dt:dt=""string"">E-Prime Primary Realtime Clock</Description><StartTime><Timestamp dt:dt=""int"">0</Timestamp><DateUtc dt:dt=""string"">2023-06-14T13:15:33Z</DateUtc></StartTime><FrequencyChanges><FrequencyChange><Frequency dt:dt=""r8"">3312841</Frequency><Timestamp dt:dt=""r8"">64311681407</Timestamp><Current dt:dt=""r8"">0</Current><DateUtc dt:dt=""string"">2023-06-14T13:15:33Z</DateUtc></FrequencyChange></FrequencyChanges></Clock>\n";TMS_Ibrahim-56-1;75.029;1.0.0.561;1;v;-112160739;2.0.10.242;2.0.10.242;06-14-2023;14/06/2023 13:15;15:15:34;2.0.10.147;0;;-999999;22;14974;0;1;1939;16913;1;1;1;2;1;1;1;BlockProcFischi;BlockList;1;75;0;;-999999;13;19651;0;1;1262;20913;1;1;1;1;ProcFischi1;ListBlockFischi;36;1;1;1;0;5;Pomod_B;125;4;ug;5;2;64;1;36;4;1;TrialProc;181;1319;Pomod_B;152;1830;1679;ListFischi1;0;;2;201;281101;11;155;2304;283405;560;1;1856;1;369;515;1296;1;1
TMS_Ibrahim;56;1;"<?xml version=""1.0""?>\n<Clock xmlns:dt=""urn:schemas-microsoft-com:datatypes""><Description dt:dt=""string"">E-Prime Primary Realtime Clock</Description><StartTime><Timestamp dt:dt=""int"">0</Timestamp><DateUtc dt:dt=""string"">2023-06-14T13:15:33Z</DateUtc></StartTime><FrequencyChanges><FrequencyChange><Frequency dt:dt=""r8"">3312841</Frequency><Timestamp dt:dt=""r8"">64311681407</Timestamp><Current dt:dt=""r8"">0</Current><DateUtc dt:dt=""string"">2023-06-14T13:15:33Z</DateUtc></FrequencyChange></FrequencyChanges></Clock>\n";TMS_Ibrahim-56-1;75.029;1.0.0.561;1;v;-112160739;2.0.10.242;2.0.10.242;06-14-2023;14/06/2023 13:15;15:15:34;2.0.10.147;0;;-999999;22;14974;0;1;1939;16913;1;1;1;2;1;1;1;BlockProcFischi;BlockList;1;75;0;;-999999;13;19651;0;1;1262;20913;1;1;1;1;ProcFischi1;ListBlockFischi;37;1;1;0;2;3;Po3_B;125;2;op;3;2;44;1;37;2;0;TrialProc;215;1315;Po3_B;38;1620;1581;ListFischi1;0;;2;203;288248;8;13;1653;289901;389;1;1653;1;401;434;1264;1;1
TMS_Ibrahim;56;1;"<?xml version=""1.0""?>\n<Clock xmlns:dt=""urn:schemas-microsoft-com:datatypes""><Description dt:dt=""string"">E-Prime Primary Realtime Clock</Description><StartTime><Timestamp dt:dt=""int"">0</Timestamp><DateUtc dt:dt=""string"">2023-06-14T13:15:33Z</DateUtc></StartTime><FrequencyChanges><FrequencyChange><Frequency dt:dt=""r8"">3312841</Frequency><Timestamp dt:dt=""r8"">64311681407</Timestamp><Current dt:dt=""r8"">0</Current><DateUtc dt:dt=""string"">2023-06-14T13:15:33Z</DateUtc></FrequencyChange></FrequencyChanges></Clock>\n";TMS_Ibrahim-56-1;75.029;1.0.0.561;1;v;-112160739;2.0.10.242;2.0.10.242;06-14-2023;14/06/2023 13:15;15:15:34;2.0.10.147;0;;-999999;22;14974;0;1;1939;16913;1;1;1;2;1;1;1;BlockProcFischi;BlockList;1;75;0;;-999999;13;19651;0;1;1262;20913;1;1;1;1;ProcFischi1;ListBlockFischi;38;1;1;0;0;3;Po4_B;100;2;op;3;2;40;1;38;2;0;TrialProc;202;1340;Po4_B;192;1522;1714;ListFischi1;0;;2;203;295500;6;13;1553;297053;465;1;1553;1;333;313;1088;1;1
TMS_Ibrahim;56;1;"<?xml version=""1.0""?>\n<Clock xmlns:dt=""urn:schemas-microsoft-com:datatypes""><Description dt:dt=""string"">E-Prime Primary Realtime Clock</Description><StartTime><Timestamp dt:dt=""int"">0</Timestamp><DateUtc dt:dt=""string"">2023-06-14T13:15:33Z</DateUtc></StartTime><FrequencyChanges><FrequencyChange><Frequency dt:dt=""r8"">3312841</Frequency><Timestamp dt:dt=""r8"">64311681407</Timestamp><Current dt:dt=""r8"">0</Current><DateUtc dt:dt=""string"">2023-06-14T13:15:33Z</DateUtc></FrequencyChange></FrequencyChanges></Clock>\n";TMS_Ibrahim-56-1;75.029;1.0.0.561;1;v;-112160739;2.0.10.242;2.0.10.242;06-14-2023;14/06/2023 13:15;15:15:34;2.0.10.147;0;;-999999;22;14974;0;1;1939;16913;1;1;1;2;1;1;1;BlockProcFischi;BlockList;1;75;0;;-999999;13;19651;0;1;1262;20913;1;1;1;1;ProcFischi1;ListBlockFischi;39;1;1;0;1;5;Po5_B;125;4;ug;5;2;62;1;39;4;1;TrialProc;200;989;Po5_B;21;1504;1482;ListFischi1;0;;2;201;303048;15;15;1525;304573;373;1;1525;1;408;334;1152;1;1
TMS_Ibrahim;56;1;"<?xml version=""1.0""?>\n<Clock xmlns:dt=""urn:schemas-microsoft-com:datatypes""><Description dt:dt=""string"">E-Prime Primary Realtime Clock</Description><StartTime><Timestamp dt:dt=""int"">0</Timestamp><DateUtc dt:dt=""string"">2023-06-14T13:15:33Z</DateUtc></StartTime><FrequencyChanges><FrequencyChange><Frequency dt:dt=""r8"">3312841</Frequency><Timestamp dt:dt=""r8"">64311681407</Timestamp><Current dt:dt=""r8"">0</Current><DateUtc dt:dt=""string"">2023-06-14T13:15:33Z</DateUtc></FrequencyChange></FrequencyChanges></Clock>\n";TMS_Ibrahim-56-1;75.029;1.0.0.561;1;v;-112160739;2.0.10.242;2.0.10.242;06-14-2023;14/06/2023 13:15;15:15:34;2.0.10.147;0;;-999999;22;14974;0;1;1939;16913;1;1;1;2;1;1;1;BlockProcFischi;BlockList;1;75;0;;-999999;13;19651;0;1;1262;20913;1;1;1;1;ProcFischi1;ListBlockFischi;40;1;2;0;1;5;Pr2_B;175;1;op;5;2;1;1;40;1;0;TrialProc;214;725;Pr2_B;75;1335;1259;ListFischi1;0;;2;203;310362;19;15;1363;311725;435;1;1363;1;520;205;928;1;1
TMS_Ibrahim;56;1;"<?xml version=""1.0""?>\n<Clock xmlns:dt=""urn:schemas-microsoft-com:datatypes""><Description dt:dt=""string"">E-Prime Primary Realtime Clock</Description><StartTime><Timestamp dt:dt=""int"">0</Timestamp><DateUtc dt:dt=""string"">2023-06-14T13:15:33Z</DateUtc></StartTime><FrequencyChanges><FrequencyChange><Frequency dt:dt=""r8"">3312841</Frequency><Timestamp dt:dt=""r8"">64311681407</Timestamp><Current dt:dt=""r8"">0</Current><DateUtc dt:dt=""string"">2023-06-14T13:15:33Z</DateUtc></FrequencyChange></FrequencyChanges></Clock>\n";TMS_Ibrahim-56-1;75.029;1.0.0.561;1;v;-112160739;2.0.10.242;2.0.10.242;06-14-2023;14/06/2023 13:15;15:15:34;2.0.10.147;0;;-999999;22;14974;0;1;1939;16913;1;1;1;2;1;1;1;BlockProcFischi;BlockList;1;75;0;;-999999;13;19651;0;1;1262;20913;1;1;1;1;ProcFischi1;ListBlockFischi;41;1;2;0;0;3;Pr4_B;100;3;ug;3;2;19;1;41;3;1;TrialProc;202;682;Pr4_B;24;1280;1255;ListFischi1;0;;2;201;317644;14;133;1616;319260;384;1;1312;1;418;555;928;1;1
TMS_Ibrahim;56;1;"<?xml version=""1.0""?>\n<Clock xmlns:dt=""urn:schemas-microsoft-com:datatypes""><Description dt:dt=""string"">E-Prime Primary Realtime Clock</Description><StartTime><Timestamp dt:dt=""int"">0</Timestamp><DateUtc dt:dt=""string"">2023-06-14T13:15:33Z</DateUtc></StartTime><FrequencyChanges><FrequencyChange><Frequency dt:dt=""r8"">3312841</Frequency><Timestamp dt:dt=""r8"">64311681407</Timestamp><Current dt:dt=""r8"">0</Current><DateUtc dt:dt=""string"">2023-06-14T13:15:33Z</DateUtc></FrequencyChange></FrequencyChanges></Clock>\n";TMS_Ibrahim-56-1;75.029;1.0.0.561;1;v;-112160739;2.0.10.242;2.0.10.242;06-14-2023;14/06/2023 13:15;15:15:34;2.0.10.147;0;;-999999;22;14974;0;1;1939;16913;1;1;1;2;1;1;1;BlockProcFischi;BlockList;1;75;0;;-999999;13;19651;0;1;1262;20913;1;1;1;1;ProcFischi1;ListBlockFischi;42;1;2;1;0;3;Prmod_B;75;3;ug;3;2;31;1;42;3;1;TrialProc;183;1325;Prmod_B;340;1999;1658;ListFischi1;0;;2;203;324664;18;133;2964;327628;372;1;2020;1;544;574;1648;1;1
TMS_Ibrahim;56;1;"<?xml version=""1.0""?>\n<Clock xmlns:dt=""urn:schemas-microsoft-com:datatypes""><Description dt:dt=""string"">E-Prime Primary Realtime Clock</Description><StartTime><Timestamp dt:dt=""int"">0</Timestamp><DateUtc dt:dt=""string"">2023-06-14T13:15:33Z</DateUtc></StartTime><FrequencyChanges><FrequencyChange><Frequency dt:dt=""r8"">3312841</Frequency><Timestamp dt:dt=""r8"">64311681407</Timestamp><Current dt:dt=""r8"">0</Current><DateUtc dt:dt=""string"">2023-06-14T13:15:33Z</DateUtc></FrequencyChange></FrequencyChanges></Clock>\n";TMS_Ibrahim-56-1;75.029;1.0.0.561;1;v;-112160739;2.0.10.242;2.0.10.242;06-14-2023;14/06/2023 13:15;15:15:34;2.0.10.147;0;;-999999;22;14974;0;1;1939;16913;1;1;1;2;1;1;1;BlockProcFischi;BlockList;1;75;0;;-999999;13;19651;0;1;1262;20913;1;1;1;1;ProcFischi1;ListBlockFischi;43;1;1;0;0;5;Po8_B;100;4;ug;5;2;53;1;43;4;1;TrialProc;243;1259;Po8_B;143;1736;1593;ListFischi1;0;;2;201;331675;17;15;1761;333436;593;1;1761;1;495;471;1168;1;1
TMS_Ibrahim;56;1;"<?xml version=""1.0""?>\n<Clock xmlns:dt=""urn:schemas-microsoft-com:datatypes""><Description dt:dt=""string"">E-Prime Primary Realtime Clock</Description><StartTime><Timestamp dt:dt=""int"">0</Timestamp><DateUtc dt:dt=""string"">2023-06-14T13:15:33Z</DateUtc></StartTime><FrequencyChanges><FrequencyChange><Frequency dt:dt=""r8"">3312841</Frequency><Timestamp dt:dt=""r8"">64311681407</Timestamp><Current dt:dt=""r8"">0</Current><DateUtc dt:dt=""string"">2023-06-14T13:15:33Z</DateUtc></FrequencyChange></FrequencyChanges></Clock>\n";TMS_Ibrahim-56-1;75.029;1.0.0.561;1;v;-112160739;2.0.10.242;2.0.10.242;06-14-2023;14/06/2023 13:15;15:15:34;2.0.10.147;0;;-999999;22;14974;0;1;1939;16913;1;1;1;2;1;1;1;BlockProcFischi;BlockList;1;75;0;;-999999;13;19651;0;1;1262;20913;1;1;1;1;ProcFischi1;ListBlockFischi;44;1;2;0;0;5;Pr5_B;150;1;op;5;2;9;1;44;1;0;TrialProc;208;674;Pr5_B;224;1499;1275;ListFischi1;0;;2;203;338908;8;151;3056;341964;464;1;1520;1;354;528;1056;1;1
TMS_Ibrahim;56;1;"<?xml version=""1.0""?>\n<Clock xmlns:dt=""urn:schemas-microsoft-com:datatypes""><Description dt:dt=""string"">E-Prime Primary Realtime Clock</Description><StartTime><Timestamp dt:dt=""int"">0</Timestamp><DateUtc dt:dt=""string"">2023-06-14T13:15:33Z</DateUtc></StartTime><FrequencyChanges><FrequencyChange><Frequency dt:dt=""r8"">3312841</Frequency><Timestamp dt:dt=""r8"">64311681407</Timestamp><Current dt:dt=""r8"">0</Current><DateUtc dt:dt=""string"">2023-06-14T13:15:33Z</DateUtc></FrequencyChange></FrequencyChanges></Clock>\n";TMS_Ibrahim-56-1;75.029;1.0.0.561;1;v;-112160739;2.0.10.242;2.0.10.242;06-14-2023;14/06/2023 13:15;15:15:34;2.0.10.147;0;;-999999;22;14974;0;1;1939;16913;1;1;1;2;1;1;1;BlockProcFischi;BlockList;1;75;0;;-999999;13;19651;0;1;1262;20913;1;1;1;1;ProcFischi1;ListBlockFischi;45;1;1;0;1;5;Po3_B;100;4;ug;5;2;60;1;45;4;1;TrialProc;180;1326;Po3_B;126;1466;1592;ListFischi1;0;;2;201;346056;18;15;1492;347548;517;1;1492;1;300;248;975;1;1
TMS_Ibrahim;56;1;"<?xml version=""1.0""?>\n<Clock xmlns:dt=""urn:schemas-microsoft-com:datatypes""><Description dt:dt=""string"">E-Prime Primary Realtime Clock</Description><StartTime><Timestamp dt:dt=""int"">0</Timestamp><DateUtc dt:dt=""string"">2023-06-14T13:15:33Z</DateUtc></StartTime><FrequencyChanges><FrequencyChange><Frequency dt:dt=""r8"">3312841</Frequency><Timestamp dt:dt=""r8"">64311681407</Timestamp><Current dt:dt=""r8"">0</Current><DateUtc dt:dt=""string"">2023-06-14T13:15:33Z</DateUtc></FrequencyChange></FrequencyChanges></Clock>\n";TMS_Ibrahim-56-1;75.029;1.0.0.561;1;v;-112160739;2.0.10.242;2.0.10.242;06-14-2023;14/06/2023 13:15;15:15:34;2.0.10.147;0;;-999999;22;14974;0;1;1939;16913;1;1;1;2;1;1;1;BlockProcFischi;BlockList;1;75;0;;-999999;13;19651;0;1;1262;20913;1;1;1;1;ProcFischi1;ListBlockFischi;46;1;1;0;2;5;Po4_B;100;4;ug;5;2;56;1;46;4;1;TrialProc;214;1350;Po4_B;255;1468;1723;ListFischi1;0;;2;203;353522;15;15;1498;355020;442;1;1498;1;490;396;1056;1;1
TMS_Ibrahim;56;1;"<?xml version=""1.0""?>\n<Clock xmlns:dt=""urn:schemas-microsoft-com:datatypes""><Description dt:dt=""string"">E-Prime Primary Realtime Clock</Description><StartTime><Timestamp dt:dt=""int"">0</Timestamp><DateUtc dt:dt=""string"">2023-06-14T13:15:33Z</DateUtc></StartTime><FrequencyChanges><FrequencyChange><Frequency dt:dt=""r8"">3312841</Frequency><Timestamp dt:dt=""r8"">64311681407</Timestamp><Current dt:dt=""r8"">0</Current><DateUtc dt:dt=""string"">2023-06-14T13:15:33Z</DateUtc></FrequencyChange></FrequencyChanges></Clock>\n";TMS_Ibrahim-56-1;75.029;1.0.0.561;1;v;-112160739;2.0.10.242;2.0.10.242;06-14-2023;14/06/2023 13:15;15:15:34;2.0.10.147;0;;-999999;22;14974;0;1;1939;16913;1;1;1;2;1;1;1;BlockProcFischi;BlockList;1;75;0;;-999999;13;19651;0;1;1262;20913;1;1;1;1;ProcFischi1;ListBlockFischi;47;1;1;1;1;3;Pomod_B;100;2;op;3;2;48;1;47;2;0;TrialProc;237;1319;Pomod_B;261;1939;1678;ListFischi1;0;;2;201;360817;11;13;1962;362779;586;1;1962;1;893;396;1376;1;1
TMS_Ibrahim;56;1;"<?xml version=""1.0""?>\n<Clock xmlns:dt=""urn:schemas-microsoft-com:datatypes""><Description dt:dt=""string"">E-Prime Primary Realtime Clock</Description><StartTime><Timestamp dt:dt=""int"">0</Timestamp><DateUtc dt:dt=""string"">2023-06-14T13:15:33Z</DateUtc></StartTime><FrequencyChanges><FrequencyChange><Frequency dt:dt=""r8"">3312841</Frequency><Timestamp dt:dt=""r8"">64311681407</Timestamp><Current dt:dt=""r8"">0</Current><DateUtc dt:dt=""string"">2023-06-14T13:15:33Z</DateUtc></FrequencyChange></FrequencyChanges></Clock>\n";TMS_Ibrahim-56-1;75.029;1.0.0.561;1;v;-112160739;2.0.10.242;2.0.10.242;06-14-2023;14/06/2023 13:15;15:15:34;2.0.10.147;0;;-999999;22;14974;0;1;1939;16913;1;1;1;2;1;1;1;BlockProcFischi;BlockList;1;75;0;;-999999;13;19651;0;1;1262;20913;1;1;1;1;ProcFischi1;ListBlockFischi;48;1;2;0;1;5;Pr5_B;150;1;op;5;2;4;1;48;1;0;TrialProc;380;688;Pr5_B;211;1498;1286;ListFischi1;0;;2;203;368100;18;15;1527;369627;522;1;1527;1;541;427;1005;1;1
TMS_Ibrahim;56;1;"<?xml version=""1.0""?>\n<Clock xmlns:dt=""urn:schemas-microsoft-com:datatypes""><Description dt:dt=""string"">E-Prime Primary Realtime Clock</Description><StartTime><Timestamp dt:dt=""int"">0</Timestamp><DateUtc dt:dt=""string"">2023-06-14T13:15:33Z</DateUtc></StartTime><FrequencyChanges><FrequencyChange><Frequency dt:dt=""r8"">3312841</Frequency><Timestamp dt:dt=""r8"">64311681407</Timestamp><Current dt:dt=""r8"">0</Current><DateUtc dt:dt=""string"">2023-06-14T13:15:33Z</DateUtc></FrequencyChange></FrequencyChanges></Clock>\n";TMS_Ibrahim-56-1;75.029;1.0.0.561;1;v;-112160739;2.0.10.242;2.0.10.242;06-14-2023;14/06/2023 13:15;15:15:34;2.0.10.147;0;;-999999;22;14974;0;1;1939;16913;1;1;1;2;1;1;1;BlockProcFischi;BlockList;1;75;0;;-999999;13;19651;0;1;1262;20913;1;1;1;1;ProcFischi1;ListBlockFischi;49;0;2;1;1;3;Prmod_B;;3;ug;5;2;32;1;49;3;1;TrialProc;221;1326;Prmod_B;57;1715;1659;ListFischi1;0;;2;201;375218;18;151;3577;378795;522;1;1737;1;547;236;1215;1;0
TMS_Ibrahim;56;1;"<?xml version=""1.0""?>\n<Clock xmlns:dt=""urn:schemas-microsoft-com:datatypes""><Description dt:dt=""string"">E-Prime Primary Realtime Clock</Description><StartTime><Timestamp dt:dt=""int"">0</Timestamp><DateUtc dt:dt=""string"">2023-06-14T13:15:33Z</DateUtc></StartTime><FrequencyChanges><FrequencyChange><Frequency dt:dt=""r8"">3312841</Frequency><Timestamp dt:dt=""r8"">64311681407</Timestamp><Current dt:dt=""r8"">0</Current><DateUtc dt:dt=""string"">2023-06-14T13:15:33Z</DateUtc></FrequencyChange></FrequencyChanges></Clock>\n";TMS_Ibrahim-56-1;75.029;1.0.0.561;1;v;-112160739;2.0.10.242;2.0.10.242;06-14-2023;14/06/2023 13:15;15:15:34;2.0.10.147;0;;-999999;22;14974;0;1;1939;16913;1;1;1;2;1;1;1;BlockProcFischi;BlockList;1;75;0;;-999999;13;19651;0;1;1262;20913;1;1;1;1;ProcFischi1;ListBlockFischi;50;1;2;0;1;3;Pr8_B;75;3;ug;3;2;26;1;50;3;1;TrialProc;229;720;Pr8_B;51;1696;1746;ListFischi1;0;;2;203;382619;14;133;2736;385355;576;1;1728;1;500;496;1152;1;1
TMS_Ibrahim;56;1;"<?xml version=""1.0""?>\n<Clock xmlns:dt=""urn:schemas-microsoft-com:datatypes""><Description dt:dt=""string"">E-Prime Primary Realtime Clock</Description><StartTime><Timestamp dt:dt=""int"">0</Timestamp><DateUtc dt:dt=""string"">2023-06-14T13:15:33Z</DateUtc></StartTime><FrequencyChanges><FrequencyChange><Frequency dt:dt=""r8"">3312841</Frequency><Timestamp dt:dt=""r8"">64311681407</Timestamp><Current dt:dt=""r8"">0</Current><DateUtc dt:dt=""string"">2023-06-14T13:15:33Z</DateUtc></FrequencyChange></FrequencyChanges></Clock>\n";TMS_Ibrahim-56-1;75.029;1.0.0.561;1;v;-112160739;2.0.10.242;2.0.10.242;06-14-2023;14/06/2023 13:15;15:15:34;2.0.10.147;0;;-999999;22;14974;0;1;1939;16913;1;1;1;2;1;1;1;BlockProcFischi;BlockList;1;75;0;;-999999;13;19651;0;1;1262;20913;1;1;1;1;ProcFischi1;ListBlockFischi;51;1;1;0;0;5;Po8_B;125;4;ug;5;2;58;1;51;4;1;TrialProc;244;1248;Po8_B;43;1538;1581;ListFischi1;0;;2;201;389970;7;15;1561;391531;473;1;1561;1;461;352;1088;1;1
TMS_Ibrahim;56;1;"<?xml version=""1.0""?>\n<Clock xmlns:dt=""urn:schemas-microsoft-com:datatypes""><Description dt:dt=""string"">E-Prime Primary Realtime Clock</Description><StartTime><Timestamp dt:dt=""int"">0</Timestamp><DateUtc dt:dt=""string"">2023-06-14T13:15:33Z</DateUtc></StartTime><FrequencyChanges><FrequencyChange><Frequency dt:dt=""r8"">3312841</Frequency><Timestamp dt:dt=""r8"">64311681407</Timestamp><Current dt:dt=""r8"">0</Current><DateUtc dt:dt=""string"">2023-06-14T13:15:33Z</DateUtc></FrequencyChange></FrequencyChanges></Clock>\n";TMS_Ibrahim-56-1;75.029;1.0.0.561;1;v;-112160739;2.0.10.242;2.0.10.242;06-14-2023;14/06/2023 13:15;15:15:34;2.0.10.147;0;;-999999;22;14974;0;1;1939;16913;1;1;1;2;1;1;1;BlockProcFischi;BlockList;1;75;0;;-999999;13;19651;0;1;1262;20913;1;1;1;1;ProcFischi1;ListBlockFischi;52;1;1;0;2;3;Po5_B;100;2;op;3;2;41;1;52;2;0;TrialProc;185;989;Po5_B;154;1328;1481;ListFischi1;0;;2;203;397373;14;13;1357;398730;430;1;1357;1;411;425;927;1;1
TMS_Ibrahim;56;1;"<?xml version=""1.0""?>\n<Clock xmlns:dt=""urn:schemas-microsoft-com:datatypes""><Description dt:dt=""string"">E-Prime Primary Realtime Clock</Description><StartTime><Timestamp dt:dt=""int"">0</Timestamp><DateUtc dt:dt=""string"">2023-06-14T13:15:33Z</DateUtc></StartTime><FrequencyChanges><FrequencyChange><Frequency dt:dt=""r8"">3312841</Frequency><Timestamp dt:dt=""r8"">64311681407</Timestamp><Current dt:dt=""r8"">0</Current><DateUtc dt:dt=""string"">2023-06-14T13:15:33Z</DateUtc></FrequencyChange></FrequencyChanges></Clock>\n";TMS_Ibrahim-56-1;75.029;1.0.0.561;1;v;-112160739;2.0.10.242;2.0.10.242;06-14-2023;14/06/2023 13:15;15:15:34;2.0.10.147;0;;-999999;22;14974;0;1;1939;16913;1;1;1;2;1;1;1;BlockProcFischi;BlockList;1;75;0;;-999999;13;19651;0;1;1262;20913;1;1;1;1;ProcFischi1;ListBlockFischi;53;1;2;0;1;3;Pr3_B;75;3;ug;3;2;18;1;53;3;1;TrialProc;230;724;Pr3_B;103;1621;1724;ListFischi1;0;;3;201;404860;18;13;1646;406506;670;1;1646;1;541;592;976;1;1
TMS_Ibrahim;56;1;"<?xml version=""1.0""?>\n<Clock xmlns:dt=""urn:schemas-microsoft-com:datatypes""><Description dt:dt=""string"">E-Prime Primary Realtime Clock</Description><StartTime><Timestamp dt:dt=""int"">0</Timestamp><DateUtc dt:dt=""string"">2023-06-14T13:15:33Z</DateUtc></StartTime><FrequencyChanges><FrequencyChange><Frequency dt:dt=""r8"">3312841</Frequency><Timestamp dt:dt=""r8"">64311681407</Timestamp><Current dt:dt=""r8"">0</Current><DateUtc dt:dt=""string"">2023-06-14T13:15:33Z</DateUtc></FrequencyChange></FrequencyChanges></Clock>\n";TMS_Ibrahim-56-1;75.029;1.0.0.561;1;v;-112160739;2.0.10.242;2.0.10.242;06-14-2023;14/06/2023 13:15;15:15:34;2.0.10.147;0;;-999999;22;14974;0;1;1939;16913;1;1;1;2;1;1;1;BlockProcFischi;BlockList;1;75;0;;-999999;13;19651;0;1;1262;20913;1;1;1;1;ProcFischi1;ListBlockFischi;54;1;1;0;0;3;Po5_B;125;2;op;3;2;36;1;54;2;0;TrialProc;236;984;Po5_B;48;1525;1477;ListFischi1;0;;2;203;412037;11;133;2165;414202;485;1;1557;1;752;439;1072;1;1
TMS_Ibrahim;56;1;"<?xml version=""1.0""?>\n<Clock xmlns:dt=""urn:schemas-microsoft-com:datatypes""><Description dt:dt=""string"">E-Prime Primary Realtime Clock</Description><StartTime><Timestamp dt:dt=""int"">0</Timestamp><DateUtc dt:dt=""string"">2023-06-14T13:15:33Z</DateUtc></StartTime><FrequencyChanges><FrequencyChange><Frequency dt:dt=""r8"">3312841</Frequency><Timestamp dt:dt=""r8"">64311681407</Timestamp><Current dt:dt=""r8"">0</Current><DateUtc dt:dt=""string"">2023-06-14T13:15:33Z</DateUtc></FrequencyChange></FrequencyChanges></Clock>\n";TMS_Ibrahim-56-1;75.029;1.0.0.561;1;v;-112160739;2.0.10.242;2.0.10.242;06-14-2023;14/06/2023 13:15;15:15:34;2.0.10.147;0;;-999999;22;14974;0;1;1939;16913;1;1;1;2;1;1;1;BlockProcFischi;BlockList;1;75;0;;-999999;13;19651;0;1;1262;20913;1;1;1;1;ProcFischi1;ListBlockFischi;55;1;2;1;2;5;Prmod_B;150;1;op;5;2;16;1;55;1;0;TrialProc;178;1321;Prmod_B;71;1724;1653;ListFischi1;0;;3;201;418806;13;15;1748;420554;404;1;1748;1;508;414;1344;1;1
TMS_Ibrahim;56;1;"<?xml version=""1.0""?>\n<Clock xmlns:dt=""urn:schemas-microsoft-com:datatypes""><Description dt:dt=""string"">E-Prime Primary Realtime Clock</Description><StartTime><Timestamp dt:dt=""int"">0</Timestamp><DateUtc dt:dt=""string"">2023-06-14T13:15:33Z</DateUtc></StartTime><FrequencyChanges><FrequencyChange><Frequency dt:dt=""r8"">3312841</Frequency><Timestamp dt:dt=""r8"">64311681407</Timestamp><Current dt:dt=""r8"">0</Current><DateUtc dt:dt=""string"">2023-06-14T13:15:33Z</DateUtc></FrequencyChange></FrequencyChanges></Clock>\n";TMS_Ibrahim-56-1;75.029;1.0.0.561;1;v;-112160739;2.0.10.242;2.0.10.242;06-14-2023;14/06/2023 13:15;15:15:34;2.0.10.147;0;;-999999;22;14974;0;1;1939;16913;1;1;1;2;1;1;1;BlockProcFischi;BlockList;1;75;0;;-999999;13;19651;0;1;1262;20913;1;1;1;1;ProcFischi1;ListBlockFischi;56;1;2;0;0;5;Pr3_B;125;1;op;5;2;2;1;56;1;0;TrialProc;257;717;Pr3_B;54;1771;1717;ListFischi1;0;;2;203;426034;9;15;1800;427834;472;1;1800;1;395;314;1328;1;1
TMS_Ibrahim;56;1;"<?xml version=""1.0""?>\n<Clock xmlns:dt=""urn:schemas-microsoft-com:datatypes""><Description dt:dt=""string"">E-Prime Primary Realtime Clock</Description><StartTime><Timestamp dt:dt=""int"">0</Timestamp><DateUtc dt:dt=""string"">2023-06-14T13:15:33Z</DateUtc></StartTime><FrequencyChanges><FrequencyChange><Frequency dt:dt=""r8"">3312841</Frequency><Timestamp dt:dt=""r8"">64311681407</Timestamp><Current dt:dt=""r8"">0</Current><DateUtc dt:dt=""string"">2023-06-14T13:15:33Z</DateUtc></FrequencyChange></FrequencyChanges></Clock>\n";TMS_Ibrahim-56-1;75.029;1.0.0.561;1;v;-112160739;2.0.10.242;2.0.10.242;06-14-2023;14/06/2023 13:15;15:15:34;2.0.10.147;0;;-999999;22;14974;0;1;1939;16913;1;1;1;2;1;1;1;BlockProcFischi;BlockList;1;75;0;;-999999;13;19651;0;1;1262;20913;1;1;1;1;ProcFischi1;ListBlockFischi;57;1;2;0;2;3;Pr2_B;75;3;ug;3;2;27;1;57;3;1;TrialProc;175;724;Pr2_B;126;1383;1258;ListFischi1;0;;2;203;433343;17;13;1419;434762;411;1;1419;1;530;474;1008;1;1
TMS_Ibrahim;56;1;"<?xml version=""1.0""?>\n<Clock xmlns:dt=""urn:schemas-microsoft-com:datatypes""><Description dt:dt=""string"">E-Prime Primary Realtime Clock</Description><StartTime><Timestamp dt:dt=""int"">0</Timestamp><DateUtc dt:dt=""string"">2023-06-14T13:15:33Z</DateUtc></StartTime><FrequencyChanges><FrequencyChange><Frequency dt:dt=""r8"">3312841</Frequency><Timestamp dt:dt=""r8"">64311681407</Timestamp><Current dt:dt=""r8"">0</Current><DateUtc dt:dt=""string"">2023-06-14T13:15:33Z</DateUtc></FrequencyChange></FrequencyChanges></Clock>\n";TMS_Ibrahim-56-1;75.029;1.0.0.561;1;v;-112160739;2.0.10.242;2.0.10.242;06-14-2023;14/06/2023 13:15;15:15:34;2.0.10.147;0;;-999999;22;14974;0;1;1939;16913;1;1;1;2;1;1;1;BlockProcFischi;BlockList;1;75;0;;-999999;13;19651;0;1;1262;20913;1;1;1;1;ProcFischi1;ListBlockFischi;58;1;2;0;0;5;Pr4_B;100;1;op;5;2;13;1;58;1;0;TrialProc;241;684;Pr4_B;192;1450;1257;ListFischi1;0;;3;201;440580;18;15;1477;442057;341;1;1477;1;506;266;1136;1;1
TMS_Ibrahim;56;1;"<?xml version=""1.0""?>\n<Clock xmlns:dt=""urn:schemas-microsoft-com:datatypes""><Description dt:dt=""string"">E-Prime Primary Realtime Clock</Description><StartTime><Timestamp dt:dt=""int"">0</Timestamp><DateUtc dt:dt=""string"">2023-06-14T13:15:33Z</DateUtc></StartTime><FrequencyChanges><FrequencyChange><Frequency dt:dt=""r8"">3312841</Frequency><Timestamp dt:dt=""r8"">64311681407</Timestamp><Current dt:dt=""r8"">0</Current><DateUtc dt:dt=""string"">2023-06-14T13:15:33Z</DateUtc></FrequencyChange></FrequencyChanges></Clock>\n";TMS_Ibrahim-56-1;75.029;1.0.0.561;1;v;-112160739;2.0.10.242;2.0.10.242;06-14-2023;14/06/2023 13:15;15:15:34;2.0.10.147;0;;-999999;22;14974;0;1;1939;16913;1;1;1;2;1;1;1;BlockProcFischi;BlockList;1;75;0;;-999999;13;19651;0;1;1262;20913;1;1;1;1;ProcFischi1;ListBlockFischi;59;1;2;0;1;5;Pr3_B;100;1;op;5;2;7;1;59;1;0;TrialProc;203;717;Pr3_B;519;2237;1717;ListFischi1;0;;2;203;447785;10;15;2256;450041;81;1;2256;1;897;515;2175;1;1
TMS_Ibrahim;56;1;"<?xml version=""1.0""?>\n<Clock xmlns:dt=""urn:schemas-microsoft-com:datatypes""><Description dt:dt=""string"">E-Prime Primary Realtime Clock</Description><StartTime><Timestamp dt:dt=""int"">0</Timestamp><DateUtc dt:dt=""string"">2023-06-14T13:15:33Z</DateUtc></StartTime><FrequencyChanges><FrequencyChange><Frequency dt:dt=""r8"">3312841</Frequency><Timestamp dt:dt=""r8"">64311681407</Timestamp><Current dt:dt=""r8"">0</Current><DateUtc dt:dt=""string"">2023-06-14T13:15:33Z</DateUtc></FrequencyChange></FrequencyChanges></Clock>\n";TMS_Ibrahim-56-1;75.029;1.0.0.561;1;v;-112160739;2.0.10.242;2.0.10.242;06-14-2023;14/06/2023 13:15;15:15:34;2.0.10.147;0;;-999999;22;14974;0;1;1939;16913;1;1;1;2;1;1;1;BlockProcFischi;BlockList;1;75;0;;-999999;13;19651;0;1;1262;20913;1;1;1;1;ProcFischi1;ListBlockFischi;60;1;1;0;0;3;Po8_B;100;2;op;3;2;42;1;60;2;0;TrialProc;161;1251;Po8_B;66;1519;1585;ListFischi1;0;;3;201;454848;11;133;2233;457081;443;1;1545;1;505;539;1102;1;1
TMS_Ibrahim;56;1;"<?xml version=""1.0""?>\n<Clock xmlns:dt=""urn:schemas-microsoft-com:datatypes""><Description dt:dt=""string"">E-Prime Primary Realtime Clock</Description><StartTime><Timestamp dt:dt=""int"">0</Timestamp><DateUtc dt:dt=""string"">2023-06-14T13:15:33Z</DateUtc></StartTime><FrequencyChanges><FrequencyChange><Frequency dt:dt=""r8"">3312841</Frequency><Timestamp dt:dt=""r8"">64311681407</Timestamp><Current dt:dt=""r8"">0</Current><DateUtc dt:dt=""string"">2023-06-14T13:15:33Z</DateUtc></FrequencyChange></FrequencyChanges></Clock>\n";TMS_Ibrahim-56-1;75.029;1.0.0.561;1;v;-112160739;2.0.10.242;2.0.10.242;06-14-2023;14/06/2023 13:15;15:15:34;2.0.10.147;0;;-999999;22;14974;0;1;1939;16913;1;1;1;2;1;1;1;BlockProcFischi;BlockList;1;75;0;;-999999;13;19651;0;1;1262;20913;1;1;1;1;ProcFischi1;ListBlockFischi;61;1;2;1;2;5;Prmod_B;100;1;op;5;2;15;1;61;1;0;TrialProc;183;1323;Prmod_B;9;1664;1655;ListFischi1;0;;2;203;461654;16;15;1699;463353;451;1;1699;1;702;513;1248;1;1
TMS_Ibrahim;56;1;"<?xml version=""1.0""?>\n<Clock xmlns:dt=""urn:schemas-microsoft-com:datatypes""><Description dt:dt=""string"">E-Prime Primary Realtime Clock</Description><StartTime><Timestamp dt:dt=""int"">0</Timestamp><DateUtc dt:dt=""string"">2023-06-14T13:15:33Z</DateUtc></StartTime><FrequencyChanges><FrequencyChange><Frequency dt:dt=""r8"">3312841</Frequency><Timestamp dt:dt=""r8"">64311681407</Timestamp><Current dt:dt=""r8"">0</Current><DateUtc dt:dt=""string"">2023-06-14T13:15:33Z</DateUtc></FrequencyChange></FrequencyChanges></Clock>\n";TMS_Ibrahim-56-1;75.029;1.0.0.561;1;v;-112160739;2.0.10.242;2.0.10.242;06-14-2023;14/06/2023 13:15;15:15:34;2.0.10.147;0;;-999999;22;14974;0;1;1939;16913;1;1;1;2;1;1;1;BlockProcFischi;BlockList;1;75;0;;-999999;13;19651;0;1;1262;20913;1;1;1;1;ProcFischi1;ListBlockFischi;62;1;2;0;0;5;Pr3_B;75;1;op;5;2;12;1;62;1;0;TrialProc;231;721;Pr3_B;138;1860;1722;ListFischi1;0;;2;201;469026;14;15;1895;470921;439;1;1895;1;469;424;1456;1;1
TMS_Ibrahim;56;1;"<?xml version=""1.0""?>\n<Clock xmlns:dt=""urn:schemas-microsoft-com:datatypes""><Description dt:dt=""string"">E-Prime Primary Realtime Clock</Description><StartTime><Timestamp dt:dt=""int"">0</Timestamp><DateUtc dt:dt=""string"">2023-06-14T13:15:33Z</DateUtc></StartTime><FrequencyChanges><FrequencyChange><Frequency dt:dt=""r8"">3312841</Frequency><Timestamp dt:dt=""r8"">64311681407</Timestamp><Current dt:dt=""r8"">0</Current><DateUtc dt:dt=""string"">2023-06-14T13:15:33Z</DateUtc></FrequencyChange></FrequencyChanges></Clock>\n";TMS_Ibrahim-56-1;75.029;1.0.0.561;1;v;-112160739;2.0.10.242;2.0.10.242;06-14-2023;14/06/2023 13:15;15:15:34;2.0.10.147;0;;-999999;22;14974;0;1;1939;16913;1;1;1;2;1;1;1;BlockProcFischi;BlockList;1;75;0;;-999999;13;19651;0;1;1262;20913;1;1;1;1;ProcFischi1;ListBlockFischi;63;1;1;0;0;5;Po3_B;100;4;ug;5;2;50;1;63;4;1;TrialProc;249;1317;Po3_B;12;1570;1582;ListFischi1;0;;2;203;477749;8;15;1604;479353;468;1;1604;1;523;395;1136;1;1
TMS_Ibrahim;56;1;"<?xml version=""1.0""?>\n<Clock xmlns:dt=""urn:schemas-microsoft-com:datatypes""><Description dt:dt=""string"">E-Prime Primary Realtime Clock</Description><StartTime><Timestamp dt:dt=""int"">0</Timestamp><DateUtc dt:dt=""string"">2023-06-14T13:15:33Z</DateUtc></StartTime><FrequencyChanges><FrequencyChange><Frequency dt:dt=""r8"">3312841</Frequency><Timestamp dt:dt=""r8"">64311681407</Timestamp><Current dt:dt=""r8"">0</Current><DateUtc dt:dt=""string"">2023-06-14T13:15:33Z</DateUtc></FrequencyChange></FrequencyChanges></Clock>\n";TMS_Ibrahim-56-1;75.029;1.0.0.561;1;v;-112160739;2.0.10.242;2.0.10.242;06-14-2023;14/06/2023 13:15;15:15:34;2.0.10.147;0;;-999999;22;14974;0;1;1939;16913;1;1;1;2;1;1;1;BlockProcFischi;BlockList;1;75;0;;-999999;13;19651;0;1;1262;20913;1;1;1;1;ProcFischi1;ListBlockFischi;64;1;2;0;1;5;Pr2_B;75;1;op;5;2;11;1;64;1;0;TrialProc;210;720;Pr2_B;100;1353;1253;ListFischi1;0;;3;201;485207;14;155;1857;487064;417;1;1377;1;441;281;960;1;1
TMS_Ibrahim;56;3;"<?xml version=""1.0""?>\n<Clock xmlns:dt=""urn:schemas-microsoft-com:datatypes""><Description dt:dt=""string"">E-Prime Primary Realtime Clock</Description><StartTime><Timestamp dt:dt=""int"">0</Timestamp><DateUtc dt:dt=""string"">2023-06-14T14:17:19Z</DateUtc></StartTime><FrequencyChanges><FrequencyChange><Frequency dt:dt=""r8"">3312841</Frequency><Timestamp dt:dt=""r8"">76588835615</Timestamp><Current dt:dt=""r8"">0</Current><DateUtc dt:dt=""string"">2023-06-14T14:17:19Z</DateUtc></FrequencyChange></FrequencyChanges></Clock>\n";TMS_Ibrahim-56-3;75.029;1.0.0.561;1;m;-719926258;2.0.10.242;2.0.10.242;06-14-2023;14/06/2023 14:17;16:17:20;2.0.10.147;0;;-999999;19;10046;0;1;959;11005;1;1;1;2;1;2;1;BlockProcFischi;BlockList;1;25;0;;-999999;8;11633;0;1;556;12189;1;1;1;1;ProcFischi1;ListBlockFischi;1;1;1;0;0;3;Po5_B;250;2;op;3;2;46;1;1;2;0;TrialProc;237;1000;Po5_B;155;1338;1493;ListFischi1;0;;3;203;14195;26;13;1361;15556;273;1;1361;1;857;370;1088;1;1
TMS_Ibrahim;56;3;"<?xml version=""1.0""?>\n<Clock xmlns:dt=""urn:schemas-microsoft-com:datatypes""><Description dt:dt=""string"">E-Prime Primary Realtime Clock</Description><StartTime><Timestamp dt:dt=""int"">0</Timestamp><DateUtc dt:dt=""string"">2023-06-14T14:17:19Z</DateUtc></StartTime><FrequencyChanges><FrequencyChange><Frequency dt:dt=""r8"">3312841</Frequency><Timestamp dt:dt=""r8"">76588835615</Timestamp><Current dt:dt=""r8"">0</Current><DateUtc dt:dt=""string"">2023-06-14T14:17:19Z</DateUtc></FrequencyChange></FrequencyChanges></Clock>\n";TMS_Ibrahim-56-3;75.029;1.0.0.561;1;m;-719926258;2.0.10.242;2.0.10.242;06-14-2023;14/06/2023 14:17;16:17:20;2.0.10.147;0;;-999999;19;10046;0;1;959;11005;1;1;1;2;1;2;1;BlockProcFischi;BlockList;1;25;0;;-999999;8;11633;0;1;556;12189;1;1;1;1;ProcFischi1;ListBlockFischi;2;1;2;0;0;3;Pr8_B;250;3;ug;3;2;21;1;2;3;1;TrialProc;166;724;Pr8_B;114;1636;1750;ListFischi1;0;;2;207;21749;16;13;1663;23412;303;1;1663;1;435;222;1360;1;1
TMS_Ibrahim;56;3;"<?xml version=""1.0""?>\n<Clock xmlns:dt=""urn:schemas-microsoft-com:datatypes""><Description dt:dt=""string"">E-Prime Primary Realtime Clock</Description><StartTime><Timestamp dt:dt=""int"">0</Timestamp><DateUtc dt:dt=""string"">2023-06-14T14:17:19Z</DateUtc></StartTime><FrequencyChanges><FrequencyChange><Frequency dt:dt=""r8"">3312841</Frequency><Timestamp dt:dt=""r8"">76588835615</Timestamp><Current dt:dt=""r8"">0</Current><DateUtc dt:dt=""string"">2023-06-14T14:17:19Z</DateUtc></FrequencyChange></FrequencyChanges></Clock>\n";TMS_Ibrahim-56-3;75.029;1.0.0.561;1;m;-719926258;2.0.10.242;2.0.10.242;06-14-2023;14/06/2023 14:17;16:17:20;2.0.10.147;0;;-999999;19;10046;0;1;959;11005;1;1;1;2;1;2;1;BlockProcFischi;BlockList;1;25;0;;-999999;8;11633;0;1;556;12189;1;1;1;1;ProcFischi1;ListBlockFischi;3;1;2;1;0;3;Prmod_B;225;3;ug;3;2;31;1;3;3;1;TrialProc;191;1319;Prmod_B;19;1670;1652;ListFischi1;0;;2;203;29177;12;13;1707;30884;283;1;1707;1;472;480;1424;1;1
TMS_Ibrahim;56;3;"<?xml version=""1.0""?>\n<Clock xmlns:dt=""urn:schemas-microsoft-com:datatypes""><Description dt:dt=""string"">E-Prime Primary Realtime Clock</Description><StartTime><Timestamp dt:dt=""int"">0</Timestamp><DateUtc dt:dt=""string"">2023-06-14T14:17:19Z</DateUtc></StartTime><FrequencyChanges><FrequencyChange><Frequency dt:dt=""r8"">3312841</Frequency><Timestamp dt:dt=""r8"">76588835615</Timestamp><Current dt:dt=""r8"">0</Current><DateUtc dt:dt=""string"">2023-06-14T14:17:19Z</DateUtc></FrequencyChange></FrequencyChanges></Clock>\n";TMS_Ibrahim-56-3;75.029;1.0.0.561;1;m;-719926258;2.0.10.242;2.0.10.242;06-14-2023;14/06/2023 14:17;16:17:20;2.0.10.147;0;;-999999;19;10046;0;1;959;11005;1;1;1;2;1;2;1;BlockProcFischi;BlockList;1;25;0;;-999999;8;11633;0;1;556;12189;1;1;1;1;ProcFischi1;ListBlockFischi;4;1;1;0;0;5;Po4_B;250;4;ug;5;2;51;1;4;4;1;TrialProc;149;1363;Po4_B;241;1965;1723;ListFischi1;0;;2;201;36518;15;15;1997;38515;429;1;1997;1;359;365;1568;1;1
TMS_Ibrahim;56;3;"<?xml version=""1.0""?>\n<Clock xmlns:dt=""urn:schemas-microsoft-com:datatypes""><Description dt:dt=""string"">E-Prime Primary Realtime Clock</Description><StartTime><Timestamp dt:dt=""int"">0</Timestamp><DateUtc dt:dt=""string"">2023-06-14T14:17:19Z</DateUtc></StartTime><FrequencyChanges><FrequencyChange><Frequency dt:dt=""r8"">3312841</Frequency><Timestamp dt:dt=""r8"">76588835615</Timestamp><Current dt:dt=""r8"">0</Current><DateUtc dt:dt=""string"">2023-06-14T14:17:19Z</DateUtc></FrequencyChange></FrequencyChanges></Clock>\n";TMS_Ibrahim-56-3;75.029;1.0.0.561;1;m;-719926258;2.0.10.242;2.0.10.242;06-14-2023;14/06/2023 14:17;16:17:20;2.0.10.147;0;;-999999;19;10046;0;1;959;11005;1;1;1;2;1;2;1;BlockProcFischi;BlockList;1;25;0;;-999999;8;11633;0;1;556;12189;1;1;1;1;ProcFischi1;ListBlockFischi;5;1;2;0;0;5;Pr4_B;250;1;op;5;2;13;1;5;1;0;TrialProc;158;679;Pr4_B;55;1306;1251;ListFischi1;0;;2;203;43706;11;155;1433;45139;281;1;1337;1;411;315;1056;1;1
TMS_Ibrahim;56;3;"<?xml version=""1.0""?>\n<Clock xmlns:dt=""urn:schemas-microsoft-com:datatypes""><Description dt:dt=""string"">E-Prime Primary Realtime Clock</Description><StartTime><Timestamp dt:dt=""int"">0</Timestamp><DateUtc dt:dt=""string"">2023-06-14T14:17:19Z</DateUtc></StartTime><FrequencyChanges><FrequencyChange><Frequency dt:dt=""r8"">3312841</Frequency><Timestamp dt:dt=""r8"">76588835615</Timestamp><Current dt:dt=""r8"">0</Current><DateUtc dt:dt=""string"">2023-06-14T14:17:19Z</DateUtc></FrequencyChange></FrequencyChanges></Clock>\n";TMS_Ibrahim-56-3;75.029;1.0.0.561;1;m;-719926258;2.0.10.242;2.0.10.242;06-14-2023;14/06/2023 14:17;16:17:20;2.0.10.147;0;;-999999;19;10046;0;1;959;11005;1;1;1;2;1;2;1;BlockProcFischi;BlockList;1;25;0;;-999999;8;11633;0;1;556;12189;1;1;1;1;ProcFischi1;ListBlockFischi;6;1;1;0;0;3;Po2_B;225;2;op;3;2;38;1;6;2;0;TrialProc;175;1591;Po2_B;119;1699;1817;ListFischi1;0;;2;201;50884;17;13;1727;52611;399;1;1727;1;802;300;1328;1;1
TMS_Ibrahim;56;3;"<?xml version=""1.0""?>\n<Clock xmlns:dt=""urn:schemas-microsoft-com:datatypes""><Description dt:dt=""string"">E-Prime Primary Realtime Clock</Description><StartTime><Timestamp dt:dt=""int"">0</Timestamp><DateUtc dt:dt=""string"">2023-06-14T14:17:19Z</DateUtc></StartTime><FrequencyChanges><FrequencyChange><Frequency dt:dt=""r8"">3312841</Frequency><Timestamp dt:dt=""r8"">76588835615</Timestamp><Current dt:dt=""r8"">0</Current><DateUtc dt:dt=""string"">2023-06-14T14:17:19Z</DateUtc></FrequencyChange></FrequencyChanges></Clock>\n";TMS_Ibrahim-56-3;75.029;1.0.0.561;1;m;-719926258;2.0.10.242;2.0.10.242;06-14-2023;14/06/2023 14:17;16:17:20;2.0.10.147;0;;-999999;19;10046;0;1;959;11005;1;1;1;2;1;2;1;BlockProcFischi;BlockList;1;25;0;;-999999;8;11633;0;1;556;12189;1;1;1;1;ProcFischi1;ListBlockFischi;7;1;1;0;0;3;Po8_B;200;2;op;3;2;42;1;7;2;0;TrialProc;197;1258;Po8_B;113;1479;1592;ListFischi1;0;;2;203;58921;17;133;2154;61075;410;1;1514;1;632;353;1104;1;1
TMS_Ibrahim;56;3;"<?xml version=""1.0""?>\n<Clock xmlns:dt=""urn:schemas-microsoft-com:datatypes""><Description dt:dt=""string"">E-Prime Primary Realtime Clock</Description><StartTime><Timestamp dt:dt=""int"">0</Timestamp><DateUtc dt:dt=""string"">2023-06-14T14:17:19Z</DateUtc></StartTime><FrequencyChanges><FrequencyChange><Frequency dt:dt=""r8"">3312841</Frequency><Timestamp dt:dt=""r8"">76588835615</Timestamp><Current dt:dt=""r8"">0</Current><DateUtc dt:dt=""string"">2023-06-14T14:17:19Z</DateUtc></FrequencyChange></FrequencyChanges></Clock>\n";TMS_Ibrahim-56-3;75.029;1.0.0.561;1;m;-719926258;2.0.10.242;2.0.10.242;06-14-2023;14/06/2023 14:17;16:17:20;2.0.10.147;0;;-999999;19;10046;0;1;959;11005;1;1;1;2;1;2;1;BlockProcFischi;BlockList;1;25;0;;-999999;8;11633;0;1;556;12189;1;1;1;1;ProcFischi1;ListBlockFischi;8;1;2;0;0;5;Pr2_B;225;1;op;5;2;1;1;8;1;0;TrialProc;199;712;Pr2_B;149;1395;1245;ListFischi1;0;;1;201;66063;5;15;1428;67491;388;1;1428;1;654;207;1040;1;1
TMS_Ibrahim;56;3;"<?xml version=""1.0""?>\n<Clock xmlns:dt=""urn:schemas-microsoft-com:datatypes""><Description dt:dt=""string"">E-Prime Primary Realtime Clock</Description><StartTime><Timestamp dt:dt=""int"">0</Timestamp><DateUtc dt:dt=""string"">2023-06-14T14:17:19Z</DateUtc></StartTime><FrequencyChanges><FrequencyChange><Frequency dt:dt=""r8"">3312841</Frequency><Timestamp dt:dt=""r8"">76588835615</Timestamp><Current dt:dt=""r8"">0</Current><DateUtc dt:dt=""string"">2023-06-14T14:17:19Z</DateUtc></FrequencyChange></FrequencyChanges></Clock>\n";TMS_Ibrahim-56-3;75.029;1.0.0.561;1;m;-719926258;2.0.10.242;2.0.10.242;06-14-2023;14/06/2023 14:17;16:17:20;2.0.10.147;0;;-999999;19;10046;0;1;959;11005;1;1;1;2;1;2;1;BlockProcFischi;BlockList;1;25;0;;-999999;8;11633;0;1;556;12189;1;1;1;1;ProcFischi1;ListBlockFischi;9;1;2;0;0;5;Pr5_B;200;1;op;5;2;9;1;9;1;0;TrialProc;144;677;Pr5_B;50;1228;1278;ListFischi1;0;;2;203;73469;10;15;1254;74723;150;1;1254;1;665;418;1104;1;1
TMS_Ibrahim;56;3;"<?xml version=""1.0""?>\n<Clock xmlns:dt=""urn:schemas-microsoft-com:datatypes""><Description dt:dt=""string"">E-Prime Primary Realtime Clock</Description><StartTime><Timestamp dt:dt=""int"">0</Timestamp><DateUtc dt:dt=""string"">2023-06-14T14:17:19Z</DateUtc></StartTime><FrequencyChanges><FrequencyChange><Frequency dt:dt=""r8"">3312841</Frequency><Timestamp dt:dt=""r8"">76588835615</Timestamp><Current dt:dt=""r8"">0</Current><DateUtc dt:dt=""string"">2023-06-14T14:17:19Z</DateUtc></FrequencyChange></FrequencyChanges></Clock>\n";TMS_Ibrahim-56-3;75.029;1.0.0.561;1;m;-719926258;2.0.10.242;2.0.10.242;06-14-2023;14/06/2023 14:17;16:17:20;2.0.10.147;0;;-999999;19;10046;0;1;959;11005;1;1;1;2;1;2;1;BlockProcFischi;BlockList;1;25;0;;-999999;8;11633;0;1;556;12189;1;1;1;1;ProcFischi1;ListBlockFischi;10;0;1;1;0;3;Pomod_B;;2;op;5;2;48;1;10;2;0;TrialProc;170;1316;Pomod_B;218;1459;1676;ListFischi1;0;;2;201;80988;8;153;2118;83106;422;1;1478;1;609;297;1056;1;0
TMS_Ibrahim;56;3;"<?xml version=""1.0""?>\n<Clock xmlns:dt=""urn:schemas-microsoft-com:datatypes""><Description dt:dt=""string"">E-Prime Primary Realtime Clock</Description><StartTime><Timestamp dt:dt=""int"">0</Timestamp><DateUtc dt:dt=""string"">2023-06-14T14:17:19Z</DateUtc></StartTime><FrequencyChanges><FrequencyChange><Frequency dt:dt=""r8"">3312841</Frequency><Timestamp dt:dt=""r8"">76588835615</Timestamp><Current dt:dt=""r8"">0</Current><DateUtc dt:dt=""string"">2023-06-14T14:17:19Z</DateUtc></FrequencyChange></FrequencyChanges></Clock>\n";TMS_Ibrahim-56-3;75.029;1.0.0.561;1;m;-719926258;2.0.10.242;2.0.10.242;06-14-2023;14/06/2023 14:17;16:17:20;2.0.10.147;0;;-999999;19;10046;0;1;959;11005;1;1;1;2;1;2;1;BlockProcFischi;BlockList;1;25;0;;-999999;8;11633;0;1;556;12189;1;1;1;1;ProcFischi1;ListBlockFischi;11;1;2;0;0;3;Pr4_B;200;3;ug;3;2;19;1;11;3;1;TrialProc;208;678;Pr4_B;107;1360;1253;ListFischi1;0;;2;203;88049;11;13;1393;89442;483;1;1393;1;739;486;910;1;1
TMS_Ibrahim;56;3;"<?xml version=""1.0""?>\n<Clock xmlns:dt=""urn:schemas-microsoft-com:datatypes""><Description dt:dt=""string"">E-Prime Primary Realtime Clock</Description><StartTime><Timestamp dt:dt=""int"">0</Timestamp><DateUtc dt:dt=""string"">2023-06-14T14:17:19Z</DateUtc></StartTime><FrequencyChanges><FrequencyChange><Frequency dt:dt=""r8"">3312841</Frequency><Timestamp dt:dt=""r8"">76588835615</Timestamp><Current dt:dt=""r8"">0</Current><DateUtc dt:dt=""string"">2023-06-14T14:17:19Z</DateUtc></FrequencyChange></FrequencyChanges></Clock>\n";TMS_Ibrahim-56-3;75.029;1.0.0.561;1;m;-719926258;2.0.10.242;2.0.10.242;06-14-2023;14/06/2023 14:17;16:17:20;2.0.10.147;0;;-999999;19;10046;0;1;959;11005;1;1;1;2;1;2;1;BlockProcFischi;BlockList;1;25;0;;-999999;8;11633;0;1;556;12189;1;1;1;1;ProcFischi1;ListBlockFischi;12;1;2;0;0;3;Pr4_B;175;3;ug;3;2;29;1;12;3;1;TrialProc;277;683;Pr4_B;147;1405;1257;ListFischi1;0;;2;201;95336;14;13;1434;96770;266;1;1434;1;598;220;1168;1;1
TMS_Ibrahim;56;3;"<?xml version=""1.0""?>\n<Clock xmlns:dt=""urn:schemas-microsoft-com:datatypes""><Description dt:dt=""string"">E-Prime Primary Realtime Clock</Description><StartTime><Timestamp dt:dt=""int"">0</Timestamp><DateUtc dt:dt=""string"">2023-06-14T14:17:19Z</DateUtc></StartTime><FrequencyChanges><FrequencyChange><Frequency dt:dt=""r8"">3312841</Frequency><Timestamp dt:dt=""r8"">76588835615</Timestamp><Current dt:dt=""r8"">0</Current><DateUtc dt:dt=""string"">2023-06-14T14:17:19Z</DateUtc></FrequencyChange></FrequencyChanges></Clock>\n";TMS_Ibrahim-56-3;75.029;1.0.0.561;1;m;-719926258;2.0.10.242;2.0.10.242;06-14-2023;14/06/2023 14:17;16:17:20;2.0.10.147;0;;-999999;19;10046;0;1;959;11005;1;1;1;2;1;2;1;BlockProcFischi;BlockList;1;25;0;;-999999;8;11633;0;1;556;12189;1;1;1;1;ProcFischi1;ListBlockFischi;13;1;1;0;0;3;Po2_B;175;2;op;3;2;33;1;13;2;0;TrialProc;198;1592;Po2_B;142;1677;1818;ListFischi1;0;;2;203;102650;18;13;1704;104354;296;1;1704;1;541;475;1408;1;1
TMS_Ibrahim;56;3;"<?xml version=""1.0""?>\n<Clock xmlns:dt=""urn:schemas-microsoft-com:datatypes""><Description dt:dt=""string"">E-Prime Primary Realtime Clock</Description><StartTime><Timestamp dt:dt=""int"">0</Timestamp><DateUtc dt:dt=""string"">2023-06-14T14:17:19Z</DateUtc></StartTime><FrequencyChanges><FrequencyChange><Frequency dt:dt=""r8"">3312841</Frequency><Timestamp dt:dt=""r8"">76588835615</Timestamp><Current dt:dt=""r8"">0</Current><DateUtc dt:dt=""string"">2023-06-14T14:17:19Z</DateUtc></FrequencyChange></FrequencyChanges></Clock>\n";TMS_Ibrahim-56-3;75.029;1.0.0.561;1;m;-719926258;2.0.10.242;2.0.10.242;06-14-2023;14/06/2023 14:17;16:17:20;2.0.10.147;0;;-999999;19;10046;0;1;959;11005;1;1;1;2;1;2;1;BlockProcFischi;BlockList;1;25;0;;-999999;8;11633;0;1;556;12189;1;1;1;1;ProcFischi1;ListBlockFischi;14;1;2;0;0;5;Pr4_B;175;1;op;5;2;8;1;14;1;0;TrialProc;203;680;Pr4_B;83;1337;1254;ListFischi1;0;;2;203;110438;13;15;1372;111810;332;1;1372;1;662;294;1040;1;1
TMS_Ibrahim;56;3;"<?xml version=""1.0""?>\n<Clock xmlns:dt=""urn:schemas-microsoft-com:datatypes""><Description dt:dt=""string"">E-Prime Primary Realtime Clock</Description><StartTime><Timestamp dt:dt=""int"">0</Timestamp><DateUtc dt:dt=""string"">2023-06-14T14:17:19Z</DateUtc></StartTime><FrequencyChanges><FrequencyChange><Frequency dt:dt=""r8"">3312841</Frequency><Timestamp dt:dt=""r8"">76588835615</Timestamp><Current dt:dt=""r8"">0</Current><DateUtc dt:dt=""string"">2023-06-14T14:17:19Z</DateUtc></FrequencyChange></FrequencyChanges></Clock>\n";TMS_Ibrahim-56-3;75.029;1.0.0.561;1;m;-719926258;2.0.10.242;2.0.10.242;06-14-2023;14/06/2023 14:17;16:17:20;2.0.10.147;0;;-999999;19;10046;0;1;959;11005;1;1;1;2;1;2;1;BlockProcFischi;BlockList;1;25;0;;-999999;8;11633;0;1;556;12189;1;1;1;1;ProcFischi1;ListBlockFischi;15;1;1;0;0;5;Po4_B;250;4;ug;5;2;56;1;15;4;1;TrialProc;158;1347;Po4_B;289;1430;1720;ListFischi1;0;;1;201;118010;12;15;1464;119474;264;1;1464;1;423;435;1200;1;1
TMS_Ibrahim;56;3;"<?xml version=""1.0""?>\n<Clock xmlns:dt=""urn:schemas-microsoft-com:datatypes""><Description dt:dt=""string"">E-Prime Primary Realtime Clock</Description><StartTime><Timestamp dt:dt=""int"">0</Timestamp><DateUtc dt:dt=""string"">2023-06-14T14:17:19Z</DateUtc></StartTime><FrequencyChanges><FrequencyChange><Frequency dt:dt=""r8"">3312841</Frequency><Timestamp dt:dt=""r8"">76588835615</Timestamp><Current dt:dt=""r8"">0</Current><DateUtc dt:dt=""string"">2023-06-14T14:17:19Z</DateUtc></FrequencyChange></FrequencyChanges></Clock>\n";TMS_Ibrahim-56-3;75.029;1.0.0.561;1;m;-719926258;2.0.10.242;2.0.10.242;06-14-2023;14/06/2023 14:17;16:17:20;2.0.10.147;0;;-999999;19;10046;0;1;959;11005;1;1;1;2;1;2;1;BlockProcFischi;BlockList;1;25;0;;-999999;8;11633;0;1;556;12189;1;1;1;1;ProcFischi1;ListBlockFischi;16;1;1;0;1;5;Po2_B;250;4;ug;5;2;54;1;16;4;1;TrialProc;181;1591;Po2_B;99;1720;1818;ListFischi1;0;;2;203;125614;18;15;1747;127361;195;1;1747;1;583;418;1552;1;1
TMS_Ibrahim;56;3;"<?xml version=""1.0""?>\n<Clock xmlns:dt=""urn:schemas-microsoft-com:datatypes""><Description dt:dt=""string"">E-Prime Primary Realtime Clock</Description><StartTime><Timestamp dt:dt=""int"">0</Timestamp><DateUtc dt:dt=""string"">2023-06-14T14:17:19Z</DateUtc></StartTime><FrequencyChanges><FrequencyChange><Frequency dt:dt=""r8"">3312841</Frequency><Timestamp dt:dt=""r8"">76588835615</Timestamp><Current dt:dt=""r8"">0</Current><DateUtc dt:dt=""string"">2023-06-14T14:17:19Z</DateUtc></FrequencyChange></FrequencyChanges></Clock>\n";TMS_Ibrahim-56-3;75.029;1.0.0.561;1;m;-719926258;2.0.10.242;2.0.10.242;06-14-2023;14/06/2023 14:17;16:17:20;2.0.10.147;0;;-999999;19;10046;0;1;959;11005;1;1;1;2;1;2;1;BlockProcFischi;BlockList;1;25;0;;-999999;8;11633;0;1;556;12189;1;1;1;1;ProcFischi1;ListBlockFischi;17;1;2;0;0;3;Pr2_B;150;3;ug;3;2;22;1;17;3;1;TrialProc;201;713;Pr2_B;123;1370;1247;ListFischi1;0;;1;201;133118;5;13;1395;134513;467;1;1395;1;584;437;928;1;1
TMS_Ibrahim;56;3;"<?xml version=""1.0""?>\n<Clock xmlns:dt=""urn:schemas-microsoft-com:datatypes""><Description dt:dt=""string"">E-Prime Primary Realtime Clock</Description><StartTime><Timestamp dt:dt=""int"">0</Timestamp><DateUtc dt:dt=""string"">2023-06-14T14:17:19Z</DateUtc></StartTime><FrequencyChanges><FrequencyChange><Frequency dt:dt=""r8"">3312841</Frequency><Timestamp dt:dt=""r8"">76588835615</Timestamp><Current dt:dt=""r8"">0</Current><DateUtc dt:dt=""string"">2023-06-14T14:17:19Z</DateUtc></FrequencyChange></FrequencyChanges></Clock>\n";TMS_Ibrahim-56-3;75.029;1.0.0.561;1;m;-719926258;2.0.10.242;2.0.10.242;06-14-2023;14/06/2023 14:17;16:17:20;2.0.10.147;0;;-999999;19;10046;0;1;959;11005;1;1;1;2;1;2;1;BlockProcFischi;BlockList;1;25;0;;-999999;8;11633;0;1;556;12189;1;1;1;1;ProcFischi1;ListBlockFischi;18;1;2;0;0;3;Pr5_B;125;3;ug;3;2;30;1;18;3;1;TrialProc;158;682;Pr5_B;151;1433;1282;ListFischi1;0;;2;203;140373;14;13;1452;141825;428;1;1452;1;671;338;1024;1;1
TMS_Ibrahim;56;3;"<?xml version=""1.0""?>\n<Clock xmlns:dt=""urn:schemas-microsoft-com:datatypes""><Description dt:dt=""string"">E-Prime Primary Realtime Clock</Description><StartTime><Timestamp dt:dt=""int"">0</Timestamp><DateUtc dt:dt=""string"">2023-06-14T14:17:19Z</DateUtc></StartTime><FrequencyChanges><FrequencyChange><Frequency dt:dt=""r8"">3312841</Frequency><Timestamp dt:dt=""r8"">76588835615</Timestamp><Current dt:dt=""r8"">0</Current><DateUtc dt:dt=""string"">2023-06-14T14:17:19Z</DateUtc></FrequencyChange></FrequencyChanges></Clock>\n";TMS_Ibrahim-56-3;75.029;1.0.0.561;1;m;-719926258;2.0.10.242;2.0.10.242;06-14-2023;14/06/2023 14:17;16:17:20;2.0.10.147;0;;-999999;19;10046;0;1;959;11005;1;1;1;2;1;2;1;BlockProcFischi;BlockList;1;25;0;;-999999;8;11633;0;1;556;12189;1;1;1;1;ProcFischi1;ListBlockFischi;19;1;1;0;0;3;Po5_B;150;2;op;3;2;41;1;19;2;0;TrialProc;131;992;Po5_B;194;1292;1485;ListFischi1;0;;1;201;147539;18;13;1326;148865;318;1;1326;1;286;550;1008;1;1
TMS_Ibrahim;56;3;"<?xml version=""1.0""?>\n<Clock xmlns:dt=""urn:schemas-microsoft-com:datatypes""><Description dt:dt=""string"">E-Prime Primary Realtime Clock</Description><StartTime><Timestamp dt:dt=""int"">0</Timestamp><DateUtc dt:dt=""string"">2023-06-14T14:17:19Z</DateUtc></StartTime><FrequencyChanges><FrequencyChange><Frequency dt:dt=""r8"">3312841</Frequency><Timestamp dt:dt=""r8"">76588835615</Timestamp><Current dt:dt=""r8"">0</Current><DateUtc dt:dt=""string"">2023-06-14T14:17:19Z</DateUtc></FrequencyChange></FrequencyChanges></Clock>\n";TMS_Ibrahim-56-3;75.029;1.0.0.561;1;m;-719926258;2.0.10.242;2.0.10.242;06-14-2023;14/06/2023 14:17;16:17:20;2.0.10.147;0;;-999999;19;10046;0;1;959;11005;1;1;1;2;1;2;1;BlockProcFischi;BlockList;1;25;0;;-999999;8;11633;0;1;556;12189;1;1;1;1;ProcFischi1;ListBlockFischi;20;1;1;0;1;3;Po4_B;150;2;op;3;2;40;1;20;2;0;TrialProc;163;1349;Po4_B;215;1508;1722;ListFischi1;0;;2;203;155006;15;13;1539;156545;243;1;1539;1;266;437;1296;1;1
TMS_Ibrahim;56;3;"<?xml version=""1.0""?>\n<Clock xmlns:dt=""urn:schemas-microsoft-com:datatypes""><Description dt:dt=""string"">E-Prime Primary Realtime Clock</Description><StartTime><Timestamp dt:dt=""int"">0</Timestamp><DateUtc dt:dt=""string"">2023-06-14T14:17:19Z</DateUtc></StartTime><FrequencyChanges><FrequencyChange><Frequency dt:dt=""r8"">3312841</Frequency><Timestamp dt:dt=""r8"">76588835615</Timestamp><Current dt:dt=""r8"">0</Current><DateUtc dt:dt=""string"">2023-06-14T14:17:19Z</DateUtc></FrequencyChange></FrequencyChanges></Clock>\n";TMS_Ibrahim-56-3;75.029;1.0.0.561;1;m;-719926258;2.0.10.242;2.0.10.242;06-14-2023;14/06/2023 14:17;16:17:20;2.0.10.147;0;;-999999;19;10046;0;1;959;11005;1;1;1;2;1;2;1;BlockProcFischi;BlockList;1;25;0;;-999999;8;11633;0;1;556;12189;1;1;1;1;ProcFischi1;ListBlockFischi;21;1;1;0;0;5;Po3_B;225;4;ug;5;2;50;1;21;4;1;TrialProc;281;1325;Po3_B;47;1545;1591;ListFischi1;0;;1;201;162642;16;15;1566;164208;302;1;1566;1;431;421;1264;1;1
TMS_Ibrahim;56;3;"<?xml version=""1.0""?>\n<Clock xmlns:dt=""urn:schemas-microsoft-com:datatypes""><Description dt:dt=""string"">E-Prime Primary Realtime Clock</Description><StartTime><Timestamp dt:dt=""int"">0</Timestamp><DateUtc dt:dt=""string"">2023-06-14T14:17:19Z</DateUtc></StartTime><FrequencyChanges><FrequencyChange><Frequency dt:dt=""r8"">3312841</Frequency><Timestamp dt:dt=""r8"">76588835615</Timestamp><Current dt:dt=""r8"">0</Current><DateUtc dt:dt=""string"">2023-06-14T14:17:19Z</DateUtc></FrequencyChange></FrequencyChanges></Clock>\n";TMS_Ibrahim-56-3;75.029;1.0.0.561;1;m;-719926258;2.0.10.242;2.0.10.242;06-14-2023;14/06/2023 14:17;16:17:20;2.0.10.147;0;;-999999;19;10046;0;1;959;11005;1;1;1;2;1;2;1;BlockProcFischi;BlockList;1;25;0;;-999999;8;11633;0;1;556;12189;1;1;1;1;ProcFischi1;ListBlockFischi;22;1;2;0;0;5;Pr3_B;150;1;op;5;2;12;1;22;1;0;TrialProc;225;720;Pr3_B;106;1614;1719;ListFischi1;0;;2;203;170070;12;15;1642;171712;362;1;1642;1;1234;538;1280;1;1
TMS_Ibrahim;56;3;"<?xml version=""1.0""?>\n<Clock xmlns:dt=""urn:schemas-microsoft-com:datatypes""><Description dt:dt=""string"">E-Prime Primary Realtime Clock</Description><StartTime><Timestamp dt:dt=""int"">0</Timestamp><DateUtc dt:dt=""string"">2023-06-14T14:17:19Z</DateUtc></StartTime><FrequencyChanges><FrequencyChange><Frequency dt:dt=""r8"">3312841</Frequency><Timestamp dt:dt=""r8"">76588835615</Timestamp><Current dt:dt=""r8"">0</Current><DateUtc dt:dt=""string"">2023-06-14T14:17:19Z</DateUtc></FrequencyChange></FrequencyChanges></Clock>\n";TMS_Ibrahim-56-3;75.029;1.0.0.561;1;m;-719926258;2.0.10.242;2.0.10.242;06-14-2023;14/06/2023 14:17;16:17:20;2.0.10.147;0;;-999999;19;10046;0;1;959;11005;1;1;1;2;1;2;1;BlockProcFischi;BlockList;1;25;0;;-999999;8;11633;0;1;556;12189;1;1;1;1;ProcFischi1;ListBlockFischi;23;1;2;0;0;5;Pr3_B;125;1;op;5;2;7;1;23;1;0;TrialProc;163;722;Pr3_B;97;1625;1721;ListFischi1;0;;2;201;177532;14;15;1652;179184;420;1;1652;1;298;501;1232;1;1
TMS_Ibrahim;56;3;"<?xml version=""1.0""?>\n<Clock xmlns:dt=""urn:schemas-microsoft-com:datatypes""><Description dt:dt=""string"">E-Prime Primary Realtime Clock</Description><StartTime><Timestamp dt:dt=""int"">0</Timestamp><DateUtc dt:dt=""string"">2023-06-14T14:17:19Z</DateUtc></StartTime><FrequencyChanges><FrequencyChange><Frequency dt:dt=""r8"">3312841</Frequency><Timestamp dt:dt=""r8"">76588835615</Timestamp><Current dt:dt=""r8"">0</Current><DateUtc dt:dt=""string"">2023-06-14T14:17:19Z</DateUtc></FrequencyChange></FrequencyChanges></Clock>\n";TMS_Ibrahim-56-3;75.029;1.0.0.561;1;m;-719926258;2.0.10.242;2.0.10.242;06-14-2023;14/06/2023 14:17;16:17:20;2.0.10.147;0;;-999999;19;10046;0;1;959;11005;1;1;1;2;1;2;1;BlockProcFischi;BlockList;1;25;0;;-999999;8;11633;0;1;556;12189;1;1;1;1;ProcFischi1;ListBlockFischi;24;1;2;0;0;5;Pr2_B;100;1;op;5;2;11;1;24;1;0;TrialProc;207;719;Pr2_B;70;1322;1251;ListFischi1;0;;2;203;184892;11;115;1348;186240;276;1;1348;1;393;370;1072;1;1
TMS_Ibrahim;56;3;"<?xml version=""1.0""?>\n<Clock xmlns:dt=""urn:schemas-microsoft-com:datatypes""><Description dt:dt=""string"">E-Prime Primary Realtime Clock</Description><StartTime><Timestamp dt:dt=""int"">0</Timestamp><DateUtc dt:dt=""string"">2023-06-14T14:17:19Z</DateUtc></StartTime><FrequencyChanges><FrequencyChange><Frequency dt:dt=""r8"">3312841</Frequency><Timestamp dt:dt=""r8"">76588835615</Timestamp><Current dt:dt=""r8"">0</Current><DateUtc dt:dt=""string"">2023-06-14T14:17:19Z</DateUtc></FrequencyChange></FrequencyChanges></Clock>\n";TMS_Ibrahim-56-3;75.029;1.0.0.561;1;m;-719926258;2.0.10.242;2.0.10.242;06-14-2023;14/06/2023 14:17;16:17:20;2.0.10.147;0;;-999999;19;10046;0;1;959;11005;1;1;1;2;1;2;1;BlockProcFischi;BlockList;1;25;0;;-999999;8;11633;0;1;556;12189;1;1;1;1;ProcFischi1;ListBlockFischi;25;1;1;0;2;3;Po5_B;150;2;op;3;2;36;1;25;2;0;TrialProc;156;980;Po5_B;106;1367;1473;ListFischi1;0;;2;201;192255;5;13;1393;193648;369;1;1393;1;1017;293;1024;1;1
TMS_Ibrahim;56;3;"<?xml version=""1.0""?>\n<Clock xmlns:dt=""urn:schemas-microsoft-com:datatypes""><Description dt:dt=""string"">E-Prime Primary Realtime Clock</Description><StartTime><Timestamp dt:dt=""int"">0</Timestamp><DateUtc dt:dt=""string"">2023-06-14T14:17:19Z</DateUtc></StartTime><FrequencyChanges><FrequencyChange><Frequency dt:dt=""r8"">3312841</Frequency><Timestamp dt:dt=""r8"">76588835615</Timestamp><Current dt:dt=""r8"">0</Current><DateUtc dt:dt=""string"">2023-06-14T14:17:19Z</DateUtc></FrequencyChange></FrequencyChanges></Clock>\n";TMS_Ibrahim-56-3;75.029;1.0.0.561;1;m;-719926258;2.0.10.242;2.0.10.242;06-14-2023;14/06/2023 14:17;16:17:20;2.0.10.147;0;;-999999;19;10046;0;1;959;11005;1;1;1;2;1;2;1;BlockProcFischi;BlockList;1;25;0;;-999999;8;11633;0;1;556;12189;1;1;1;1;ProcFischi1;ListBlockFischi;26;1;1;0;0;5;Po3_B;200;4;ug;5;2;55;1;26;4;1;TrialProc;150;1317;Po3_B;60;1524;1584;ListFischi1;0;;2;203;199674;10;15;1558;201232;406;1;1558;1;283;371;1152;1;1
TMS_Ibrahim;56;3;"<?xml version=""1.0""?>\n<Clock xmlns:dt=""urn:schemas-microsoft-com:datatypes""><Description dt:dt=""string"">E-Prime Primary Realtime Clock</Description><StartTime><Timestamp dt:dt=""int"">0</Timestamp><DateUtc dt:dt=""string"">2023-06-14T14:17:19Z</DateUtc></StartTime><FrequencyChanges><FrequencyChange><Frequency dt:dt=""r8"">3312841</Frequency><Timestamp dt:dt=""r8"">76588835615</Timestamp><Current dt:dt=""r8"">0</Current><DateUtc dt:dt=""string"">2023-06-14T14:17:19Z</DateUtc></FrequencyChange></FrequencyChanges></Clock>\n";TMS_Ibrahim-56-3;75.029;1.0.0.561;1;m;-719926258;2.0.10.242;2.0.10.242;06-14-2023;14/06/2023 14:17;16:17:20;2.0.10.147;0;;-999999;19;10046;0;1;959;11005;1;1;1;2;1;2;1;BlockProcFischi;BlockList;1;25;0;;-999999;8;11633;0;1;556;12189;1;1;1;1;ProcFischi1;ListBlockFischi;27;1;2;0;1;3;Pr2_B;125;3;ug;3;2;17;1;27;3;1;TrialProc;217;721;Pr2_B;67;1319;1253;ListFischi1;0;;2;203;207015;13;13;1352;208367;169;1;1352;1;728;283;1183;1;1
TMS_Ibrahim;56;3;"<?xml version=""1.0""?>\n<Clock xmlns:dt=""urn:schemas-microsoft-com:datatypes""><Description dt:dt=""string"">E-Prime Primary Realtime Clock</Description><StartTime><Timestamp dt:dt=""int"">0</Timestamp><DateUtc dt:dt=""string"">2023-06-14T14:17:19Z</DateUtc></StartTime><FrequencyChanges><FrequencyChange><Frequency dt:dt=""r8"">3312841</Frequency><Timestamp dt:dt=""r8"">76588835615</Timestamp><Current dt:dt=""r8"">0</Current><DateUtc dt:dt=""string"">2023-06-14T14:17:19Z</DateUtc></FrequencyChange></FrequencyChanges></Clock>\n";TMS_Ibrahim-56-3;75.029;1.0.0.561;1;m;-719926258;2.0.10.242;2.0.10.242;06-14-2023;14/06/2023 14:17;16:17:20;2.0.10.147;0;;-999999;19;10046;0;1;959;11005;1;1;1;2;1;2;1;BlockProcFischi;BlockList;1;25;0;;-999999;8;11633;0;1;556;12189;1;1;1;1;ProcFischi1;ListBlockFischi;28;1;1;0;0;5;Po5_B;175;4;ug;5;2;52;1;28;4;1;TrialProc;167;986;Po5_B;129;1609;1480;ListFischi1;0;;1;201;214387;11;155;3116;217503;332;1;1644;1;2536;575;1312;1;1
TMS_Ibrahim;56;3;"<?xml version=""1.0""?>\n<Clock xmlns:dt=""urn:schemas-microsoft-com:datatypes""><Description dt:dt=""string"">E-Prime Primary Realtime Clock</Description><StartTime><Timestamp dt:dt=""int"">0</Timestamp><DateUtc dt:dt=""string"">2023-06-14T14:17:19Z</DateUtc></StartTime><FrequencyChanges><FrequencyChange><Frequency dt:dt=""r8"">3312841</Frequency><Timestamp dt:dt=""r8"">76588835615</Timestamp><Current dt:dt=""r8"">0</Current><DateUtc dt:dt=""string"">2023-06-14T14:17:19Z</DateUtc></FrequencyChange></FrequencyChanges></Clock>\n";TMS_Ibrahim-56-3;75.029;1.0.0.561;1;m;-719926258;2.0.10.242;2.0.10.242;06-14-2023;14/06/2023 14:17;16:17:20;2.0.10.147;0;;-999999;19;10046;0;1;959;11005;1;1;1;2;1;2;1;BlockProcFischi;BlockList;1;25;0;;-999999;8;11633;0;1;556;12189;1;1;1;1;ProcFischi1;ListBlockFischi;29;1;1;0;0;5;Po4_B;150;4;ug;5;2;61;1;29;4;1;TrialProc;161;1356;Po4_B;414;1302;1715;ListFischi1;0;;2;203;220588;8;15;1331;221919;595;1;1331;1;567;375;736;1;1
TMS_Ibrahim;56;3;"<?xml version=""1.0""?>\n<Clock xmlns:dt=""urn:schemas-microsoft-com:datatypes""><Description dt:dt=""string"">E-Prime Primary Realtime Clock</Description><StartTime><Timestamp dt:dt=""int"">0</Timestamp><DateUtc dt:dt=""string"">2023-06-14T14:17:19Z</DateUtc></StartTime><FrequencyChanges><FrequencyChange><Frequency dt:dt=""r8"">3312841</Frequency><Timestamp dt:dt=""r8"">76588835615</Timestamp><Current dt:dt=""r8"">0</Current><DateUtc dt:dt=""string"">2023-06-14T14:17:19Z</DateUtc></FrequencyChange></FrequencyChanges></Clock>\n";TMS_Ibrahim-56-3;75.029;1.0.0.561;1;m;-719926258;2.0.10.242;2.0.10.242;06-14-2023;14/06/2023 14:17;16:17:20;2.0.10.147;0;;-999999;19;10046;0;1;959;11005;1;1;1;2;1;2;1;BlockProcFischi;BlockList;1;25;0;;-999999;8;11633;0;1;556;12189;1;1;1;1;ProcFischi1;ListBlockFischi;30;1;2;0;0;3;Pr3_B;100;3;ug;3;2;18;1;30;3;1;TrialProc;149;719;Pr3_B;179;1540;1718;ListFischi1;0;;3;201;228261;12;13;1562;229823;314;1;1562;1;589;274;1248;1;1
TMS_Ibrahim;56;3;"<?xml version=""1.0""?>\n<Clock xmlns:dt=""urn:schemas-microsoft-com:datatypes""><Description dt:dt=""string"">E-Prime Primary Realtime Clock</Description><StartTime><Timestamp dt:dt=""int"">0</Timestamp><DateUtc dt:dt=""string"">2023-06-14T14:17:19Z</DateUtc></StartTime><FrequencyChanges><FrequencyChange><Frequency dt:dt=""r8"">3312841</Frequency><Timestamp dt:dt=""r8"">76588835615</Timestamp><Current dt:dt=""r8"">0</Current><DateUtc dt:dt=""string"">2023-06-14T14:17:19Z</DateUtc></FrequencyChange></FrequencyChanges></Clock>\n";TMS_Ibrahim-56-3;75.029;1.0.0.561;1;m;-719926258;2.0.10.242;2.0.10.242;06-14-2023;14/06/2023 14:17;16:17:20;2.0.10.147;0;;-999999;19;10046;0;1;959;11005;1;1;1;2;1;2;1;BlockProcFischi;BlockList;1;25;0;;-999999;8;11633;0;1;556;12189;1;1;1;1;ProcFischi1;ListBlockFischi;31;1;2;0;0;5;Pr5_B;75;1;op;5;2;14;1;31;1;0;TrialProc;174;680;Pr5_B;116;1396;1281;ListFischi1;0;;2;203;237429;14;15;1418;238847;314;1;1418;1;407;237;1104;1;1
TMS_Ibrahim;56;3;"<?xml version=""1.0""?>\n<Clock xmlns:dt=""urn:schemas-microsoft-com:datatypes""><Description dt:dt=""string"">E-Prime Primary Realtime Clock</Description><StartTime><Timestamp dt:dt=""int"">0</Timestamp><DateUtc dt:dt=""string"">2023-06-14T14:17:19Z</DateUtc></StartTime><FrequencyChanges><FrequencyChange><Frequency dt:dt=""r8"">3312841</Frequency><Timestamp dt:dt=""r8"">76588835615</Timestamp><Current dt:dt=""r8"">0</Current><DateUtc dt:dt=""string"">2023-06-14T14:17:19Z</DateUtc></FrequencyChange></FrequencyChanges></Clock>\n";TMS_Ibrahim-56-3;75.029;1.0.0.561;1;m;-719926258;2.0.10.242;2.0.10.242;06-14-2023;14/06/2023 14:17;16:17:20;2.0.10.147;0;;-999999;19;10046;0;1;959;11005;1;1;1;2;1;2;1;BlockProcFischi;BlockList;1;25;0;;-999999;8;11633;0;1;556;12189;1;1;1;1;ProcFischi1;ListBlockFischi;32;0;1;1;1;5;Pomod_B;;4;ug;1;2;64;1;32;4;1;TrialProc;168;1327;Pomod_B;116;1902;1686;ListFischi1;0;;1;201;244636;18;15;1923;246559;211;1;1;1;179;210;-210;1;0
TMS_Ibrahim;56;3;"<?xml version=""1.0""?>\n<Clock xmlns:dt=""urn:schemas-microsoft-com:datatypes""><Description dt:dt=""string"">E-Prime Primary Realtime Clock</Description><StartTime><Timestamp dt:dt=""int"">0</Timestamp><DateUtc dt:dt=""string"">2023-06-14T14:17:19Z</DateUtc></StartTime><FrequencyChanges><FrequencyChange><Frequency dt:dt=""r8"">3312841</Frequency><Timestamp dt:dt=""r8"">76588835615</Timestamp><Current dt:dt=""r8"">0</Current><DateUtc dt:dt=""string"">2023-06-14T14:17:19Z</DateUtc></FrequencyChange></FrequencyChanges></Clock>\n";TMS_Ibrahim-56-3;75.029;1.0.0.561;1;m;-719926258;2.0.10.242;2.0.10.242;06-14-2023;14/06/2023 14:17;16:17:20;2.0.10.147;0;;-999999;19;10046;0;1;959;11005;1;1;1;2;1;2;1;BlockProcFischi;BlockList;1;25;0;;-999999;8;11633;0;1;556;12189;1;1;1;1;ProcFischi1;ListBlockFischi;33;1;2;1;1;3;Prmod_B;100;3;ug;3;2;32;1;33;3;1;TrialProc;159;1317;Prmod_B;20;1670;1650;ListFischi1;0;;2;203;251787;11;133;2515;254302;403;1;1699;1;180;442;1296;1;1
TMS_Ibrahim;56;3;"<?xml version=""1.0""?>\n<Clock xmlns:dt=""urn:schemas-microsoft-com:datatypes""><Description dt:dt=""string"">E-Prime Primary Realtime Clock</Description><StartTime><Timestamp dt:dt=""int"">0</Timestamp><DateUtc dt:dt=""string"">2023-06-14T14:17:19Z</DateUtc></StartTime><FrequencyChanges><FrequencyChange><Frequency dt:dt=""r8"">3312841</Frequency><Timestamp dt:dt=""r8"">76588835615</Timestamp><Current dt:dt=""r8"">0</Current><DateUtc dt:dt=""string"">2023-06-14T14:17:19Z</DateUtc></FrequencyChange></FrequencyChanges></Clock>\n";TMS_Ibrahim-56-3;75.029;1.0.0.561;1;m;-719926258;2.0.10.242;2.0.10.242;06-14-2023;14/06/2023 14:17;16:17:20;2.0.10.147;0;;-999999;19;10046;0;1;959;11005;1;1;1;2;1;2;1;BlockProcFischi;BlockList;1;25;0;;-999999;8;11633;0;1;556;12189;1;1;1;1;ProcFischi1;ListBlockFischi;34;1;1;0;1;5;Po2_B;150;4;ug;5;2;49;1;34;4;1;TrialProc;157;1591;Po2_B;100;1918;1818;ListFischi1;0;;1;201;259126;15;15;1944;261070;472;1;1944;1;374;237;1472;1;1
TMS_Ibrahim;56;3;"<?xml version=""1.0""?>\n<Clock xmlns:dt=""urn:schemas-microsoft-com:datatypes""><Description dt:dt=""string"">E-Prime Primary Realtime Clock</Description><StartTime><Timestamp dt:dt=""int"">0</Timestamp><DateUtc dt:dt=""string"">2023-06-14T14:17:19Z</DateUtc></StartTime><FrequencyChanges><FrequencyChange><Frequency dt:dt=""r8"">3312841</Frequency><Timestamp dt:dt=""r8"">76588835615</Timestamp><Current dt:dt=""r8"">0</Current><DateUtc dt:dt=""string"">2023-06-14T14:17:19Z</DateUtc></FrequencyChange></FrequencyChanges></Clock>\n";TMS_Ibrahim-56-3;75.029;1.0.0.561;1;m;-719926258;2.0.10.242;2.0.10.242;06-14-2023;14/06/2023 14:17;16:17:20;2.0.10.147;0;;-999999;19;10046;0;1;959;11005;1;1;1;2;1;2;1;BlockProcFischi;BlockList;1;25;0;;-999999;8;11633;0;1;556;12189;1;1;1;1;ProcFischi1;ListBlockFischi;35;1;2;0;0;3;Pr8_B;75;3;ug;3;2;26;1;35;3;1;TrialProc;149;723;Pr8_B;102;1649;1751;ListFischi1;0;;2;203;266443;16;13;1683;268126;387;1;1683;1;280;409;1296;1;1
TMS_Ibrahim;56;3;"<?xml version=""1.0""?>\n<Clock xmlns:dt=""urn:schemas-microsoft-com:datatypes""><Description dt:dt=""string"">E-Prime Primary Realtime Clock</Description><StartTime><Timestamp dt:dt=""int"">0</Timestamp><DateUtc dt:dt=""string"">2023-06-14T14:17:19Z</DateUtc></StartTime><FrequencyChanges><FrequencyChange><Frequency dt:dt=""r8"">3312841</Frequency><Timestamp dt:dt=""r8"">76588835615</Timestamp><Current dt:dt=""r8"">0</Current><DateUtc dt:dt=""string"">2023-06-14T14:17:19Z</DateUtc></FrequencyChange></FrequencyChanges></Clock>\n";TMS_Ibrahim-56-3;75.029;1.0.0.561;1;m;-719926258;2.0.10.242;2.0.10.242;06-14-2023;14/06/2023 14:17;16:17:20;2.0.10.147;0;;-999999;19;10046;0;1;959;11005;1;1;1;2;1;2;1;BlockProcFischi;BlockList;1;25;0;;-999999;8;11633;0;1;556;12189;1;1;1;1;ProcFischi1;ListBlockFischi;36;1;2;0;1;3;Pr3_B;75;3;ug;3;2;28;1;36;3;1;TrialProc;144;719;Pr3_B;46;1765;1719;ListFischi1;0;;1;201;273885;11;13;1793;275678;385;1;1793;1;271;593;1408;1;1
