ExperimentName;Subject;Session;Clock.Information;DataFile.Basename;Display.RefreshRate;ExperimentVersion;Group;Name;RandomSeed;RuntimeVersion;RuntimeVersionExpected;SessionDate;SessionStartDateTimeUtc;SessionTime;StudioVersion;SyncEprimeKinB1.ACC;SyncEprimeKinB1.CRESP;SyncEprimeKinB1.DurationError;SyncEprimeKinB1.OnsetDelay;SyncEprimeKinB1.OnsetTime;SyncEprimeKinB1.OnsetToOnsetTime;SyncEprimeKinB1.RESP;SyncEprimeKinB1.RT;SyncEprimeKinB1.RTTime;Block;BlockINT_0Fischi_1Suoni;BlockList;BlockList.Cycle;BlockList.Sample;ContatoreSuoni;NumSuono;Procedure[Block];Running[Block];Suonilist;SuonoFinSoglia;SyncEprimeKinFischi1.ACC;SyncEprimeKinFischi1.CRESP;SyncEprimeKinFischi1.DurationError;SyncEprimeKinFischi1.OnsetDelay;SyncEprimeKinFischi1.OnsetTime;SyncEprimeKinFischi1.OnsetToOnsetTime;SyncEprimeKinFischi1.RESP;SyncEprimeKinFischi1.RT;SyncEprimeKinFischi1.RTTime;Trial;ListBlockFischi;ListBlockFischi.Cycle;ListBlockFischi.Sample;Procedure[Trial];Running[Trial];SubTrial;AccSogg1;Avatar_Giu1_Su2;CatchTrial_CORR;ContatoreFinestraSoglia;CorrectResponse;File_Name;FinestraSoglia;IdcondEEG;Istruzione;KeySoggetto1;KeySoggetto2;ListFischi1;ListFischi1.Cycle;ListFischi1.Sample;NumeroSuono;OP_UG;Procedure[SubTrial];Resoconto.RT;RTChange;RTimage;RTNetto;RTSubj;RTTouch;Running[SubTrial];StartGo.ACC;StartGo.CRESP;StartGo.DurationError;StartGo.OnsetDelay;StartGo.OnsetTime;StartGo.OnsetToOnsetTime;StartGo.RESP;StartGo.RT;StartGo.RTTime;StartSoggetto1;StartSoggetto2;StopSoggetto1;StopSoggetto2;StopTrial.RT;tempo;TMSoggetto1;ValiditaTrial;Vincitore
TMS_Ibrahim;57;2;"<?xml version=""1.0""?>\n<Clock xmlns:dt=""urn:schemas-microsoft-com:datatypes""><Description dt:dt=""string"">E-Prime Primary Realtime Clock</Description><StartTime><Timestamp dt:dt=""int"">0</Timestamp><DateUtc dt:dt=""string"">2023-06-30T15:05:24Z</DateUtc></StartTime><FrequencyChanges><FrequencyChange><Frequency dt:dt=""r8"">3312832</Frequency><Timestamp dt:dt=""r8"">73846793664</Timestamp><Current dt:dt=""r8"">0</Current><DateUtc dt:dt=""string"">2023-06-30T15:05:24Z</DateUtc></FrequencyChange></FrequencyChanges></Clock>\n";TMS_Ibrahim-57-2;75.028;1.0.0.561;1;v;832974698;2.0.10.242;2.0.10.242;06-30-2023;30/06/2023 15:05;17:05:24;2.0.10.147;0;;-999999;21;19564;0;1;1842;21406;1;1;1;2;1;2;1;BlockProcFischi;BlockList;1;75;0;;-999999;32;25428;0;1;5156;30584;1;1;1;1;ProcFischi1;ListBlockFischi;1;1;2;0;0;5;Pr4_B;250;1;op;5;2;13;1;1;1;0;TrialProc;602;711;Pr4_B;118;1401;1283;ListFischi1;0;;5;210;32522;28;15;1440;33962;400;1;1440;1;708;409;1040;1;1
TMS_Ibrahim;57;2;"<?xml version=""1.0""?>\n<Clock xmlns:dt=""urn:schemas-microsoft-com:datatypes""><Description dt:dt=""string"">E-Prime Primary Realtime Clock</Description><StartTime><Timestamp dt:dt=""int"">0</Timestamp><DateUtc dt:dt=""string"">2023-06-30T15:05:24Z</DateUtc></StartTime><FrequencyChanges><FrequencyChange><Frequency dt:dt=""r8"">3312832</Frequency><Timestamp dt:dt=""r8"">73846793664</Timestamp><Current dt:dt=""r8"">0</Current><DateUtc dt:dt=""string"">2023-06-30T15:05:24Z</DateUtc></FrequencyChange></FrequencyChanges></Clock>\n";TMS_Ibrahim-57-2;75.028;1.0.0.561;1;v;832974698;2.0.10.242;2.0.10.242;06-30-2023;30/06/2023 15:05;17:05:24;2.0.10.147;0;;-999999;21;19564;0;1;1842;21406;1;1;1;2;1;2;1;BlockProcFischi;BlockList;1;75;0;;-999999;32;25428;0;1;5156;30584;1;1;1;1;ProcFischi1;ListBlockFischi;2;1;1;0;0;3;Po8_B;250;2;op;3;2;37;1;2;2;0;TrialProc;414;1262;Po8_B;213;1382;1595;ListFischi1;0;;2;201;39530;17;13;1407;40937;239;1;1407;1;358;552;1168;1;1
TMS_Ibrahim;57;2;"<?xml version=""1.0""?>\n<Clock xmlns:dt=""urn:schemas-microsoft-com:datatypes""><Description dt:dt=""string"">E-Prime Primary Realtime Clock</Description><StartTime><Timestamp dt:dt=""int"">0</Timestamp><DateUtc dt:dt=""string"">2023-06-30T15:05:24Z</DateUtc></StartTime><FrequencyChanges><FrequencyChange><Frequency dt:dt=""r8"">3312832</Frequency><Timestamp dt:dt=""r8"">73846793664</Timestamp><Current dt:dt=""r8"">0</Current><DateUtc dt:dt=""string"">2023-06-30T15:05:24Z</DateUtc></FrequencyChange></FrequencyChanges></Clock>\n";TMS_Ibrahim-57-2;75.028;1.0.0.561;1;v;832974698;2.0.10.242;2.0.10.242;06-30-2023;30/06/2023 15:05;17:05:24;2.0.10.147;0;;-999999;21;19564;0;1;1842;21406;1;1;1;2;1;2;1;BlockProcFischi;BlockList;1;75;0;;-999999;32;25428;0;1;5156;30584;1;1;1;1;ProcFischi1;ListBlockFischi;3;1;2;0;0;5;Pr2_B;225;1;op;5;2;6;1;3;1;0;TrialProc;735;723;Pr2_B;5;1251;1256;ListFischi1;0;;2;203;46907;11;15;1278;48185;288;1;1278;1;454;299;990;1;1
TMS_Ibrahim;57;2;"<?xml version=""1.0""?>\n<Clock xmlns:dt=""urn:schemas-microsoft-com:datatypes""><Description dt:dt=""string"">E-Prime Primary Realtime Clock</Description><StartTime><Timestamp dt:dt=""int"">0</Timestamp><DateUtc dt:dt=""string"">2023-06-30T15:05:24Z</DateUtc></StartTime><FrequencyChanges><FrequencyChange><Frequency dt:dt=""r8"">3312832</Frequency><Timestamp dt:dt=""r8"">73846793664</Timestamp><Current dt:dt=""r8"">0</Current><DateUtc dt:dt=""string"">2023-06-30T15:05:24Z</DateUtc></FrequencyChange></FrequencyChanges></Clock>\n";TMS_Ibrahim-57-2;75.028;1.0.0.561;1;v;832974698;2.0.10.242;2.0.10.242;06-30-2023;30/06/2023 15:05;17:05:24;2.0.10.147;0;;-999999;21;19564;0;1;1842;21406;1;1;1;2;1;2;1;BlockProcFischi;BlockList;1;75;0;;-999999;32;25428;0;1;5156;30584;1;1;1;1;ProcFischi1;ListBlockFischi;4;1;2;0;0;3;Pr5_B;250;3;ug;3;2;25;1;4;3;1;TrialProc;609;687;Pr5_B;215;1502;1287;ListFischi1;0;;2;201;54274;14;13;1527;55801;314;1;1527;1;789;470;1213;1;1
TMS_Ibrahim;57;2;"<?xml version=""1.0""?>\n<Clock xmlns:dt=""urn:schemas-microsoft-com:datatypes""><Description dt:dt=""string"">E-Prime Primary Realtime Clock</Description><StartTime><Timestamp dt:dt=""int"">0</Timestamp><DateUtc dt:dt=""string"">2023-06-30T15:05:24Z</DateUtc></StartTime><FrequencyChanges><FrequencyChange><Frequency dt:dt=""r8"">3312832</Frequency><Timestamp dt:dt=""r8"">73846793664</Timestamp><Current dt:dt=""r8"">0</Current><DateUtc dt:dt=""string"">2023-06-30T15:05:24Z</DateUtc></FrequencyChange></FrequencyChanges></Clock>\n";TMS_Ibrahim-57-2;75.028;1.0.0.561;1;v;832974698;2.0.10.242;2.0.10.242;06-30-2023;30/06/2023 15:05;17:05:24;2.0.10.147;0;;-999999;21;19564;0;1;1842;21406;1;1;1;2;1;2;1;BlockProcFischi;BlockList;1;75;0;;-999999;32;25428;0;1;5156;30584;1;1;1;1;ProcFischi1;ListBlockFischi;5;0;1;1;0;5;Pomod_B;;4;ug;3;2;63;1;5;4;1;TrialProc;3024;1324;Pomod_B;162;1522;1684;ListFischi1;0;;2;203;61154;11;1135;2231;63385;359;1;1543;1;393;399;1184;1;0
TMS_Ibrahim;57;2;"<?xml version=""1.0""?>\n<Clock xmlns:dt=""urn:schemas-microsoft-com:datatypes""><Description dt:dt=""string"">E-Prime Primary Realtime Clock</Description><StartTime><Timestamp dt:dt=""int"">0</Timestamp><DateUtc dt:dt=""string"">2023-06-30T15:05:24Z</DateUtc></StartTime><FrequencyChanges><FrequencyChange><Frequency dt:dt=""r8"">3312832</Frequency><Timestamp dt:dt=""r8"">73846793664</Timestamp><Current dt:dt=""r8"">0</Current><DateUtc dt:dt=""string"">2023-06-30T15:05:24Z</DateUtc></FrequencyChange></FrequencyChanges></Clock>\n";TMS_Ibrahim-57-2;75.028;1.0.0.561;1;v;832974698;2.0.10.242;2.0.10.242;06-30-2023;30/06/2023 15:05;17:05:24;2.0.10.147;0;;-999999;21;19564;0;1;1842;21406;1;1;1;2;1;2;1;BlockProcFischi;BlockList;1;75;0;;-999999;32;25428;0;1;5156;30584;1;1;1;1;ProcFischi1;ListBlockFischi;6;1;1;0;0;5;Po2_B;250;4;ug;5;2;59;1;6;4;1;TrialProc;634;1594;Po2_B;121;1700;1822;ListFischi1;0;;2;201;67721;15;15;1728;69449;528;1;1728;1;449;288;1200;1;1
TMS_Ibrahim;57;2;"<?xml version=""1.0""?>\n<Clock xmlns:dt=""urn:schemas-microsoft-com:datatypes""><Description dt:dt=""string"">E-Prime Primary Realtime Clock</Description><StartTime><Timestamp dt:dt=""int"">0</Timestamp><DateUtc dt:dt=""string"">2023-06-30T15:05:24Z</DateUtc></StartTime><FrequencyChanges><FrequencyChange><Frequency dt:dt=""r8"">3312832</Frequency><Timestamp dt:dt=""r8"">73846793664</Timestamp><Current dt:dt=""r8"">0</Current><DateUtc dt:dt=""string"">2023-06-30T15:05:24Z</DateUtc></FrequencyChange></FrequencyChanges></Clock>\n";TMS_Ibrahim-57-2;75.028;1.0.0.561;1;v;832974698;2.0.10.242;2.0.10.242;06-30-2023;30/06/2023 15:05;17:05:24;2.0.10.147;0;;-999999;21;19564;0;1;1842;21406;1;1;1;2;1;2;1;BlockProcFischi;BlockList;1;75;0;;-999999;32;25428;0;1;5156;30584;1;1;1;1;ProcFischi1;ListBlockFischi;7;0;2;0;0;5;Pr5_B;;1;op;1;2;4;1;7;1;0;TrialProc;806;685;Pr5_B;121;1700;1285;ListFischi1;0;;2;203;75081;13;15;1776;76857;496;1;1;1;265;310;-495;1;0
TMS_Ibrahim;57;2;"<?xml version=""1.0""?>\n<Clock xmlns:dt=""urn:schemas-microsoft-com:datatypes""><Description dt:dt=""string"">E-Prime Primary Realtime Clock</Description><StartTime><Timestamp dt:dt=""int"">0</Timestamp><DateUtc dt:dt=""string"">2023-06-30T15:05:24Z</DateUtc></StartTime><FrequencyChanges><FrequencyChange><Frequency dt:dt=""r8"">3312832</Frequency><Timestamp dt:dt=""r8"">73846793664</Timestamp><Current dt:dt=""r8"">0</Current><DateUtc dt:dt=""string"">2023-06-30T15:05:24Z</DateUtc></FrequencyChange></FrequencyChanges></Clock>\n";TMS_Ibrahim-57-2;75.028;1.0.0.561;1;v;832974698;2.0.10.242;2.0.10.242;06-30-2023;30/06/2023 15:05;17:05:24;2.0.10.147;0;;-999999;21;19564;0;1;1842;21406;1;1;1;2;1;2;1;BlockProcFischi;BlockList;1;75;0;;-999999;32;25428;0;1;5156;30584;1;1;1;1;ProcFischi1;ListBlockFischi;8;0;2;1;0;5;Prmod_B;;1;op;1;2;16;1;8;1;0;TrialProc;4183;1324;Prmod_B;468;1753;1658;ListFischi1;0;;2;201;82144;14;13;2105;84249;329;1;1;1;250;568;-328;1;0
TMS_Ibrahim;57;2;"<?xml version=""1.0""?>\n<Clock xmlns:dt=""urn:schemas-microsoft-com:datatypes""><Description dt:dt=""string"">E-Prime Primary Realtime Clock</Description><StartTime><Timestamp dt:dt=""int"">0</Timestamp><DateUtc dt:dt=""string"">2023-06-30T15:05:24Z</DateUtc></StartTime><FrequencyChanges><FrequencyChange><Frequency dt:dt=""r8"">3312832</Frequency><Timestamp dt:dt=""r8"">73846793664</Timestamp><Current dt:dt=""r8"">0</Current><DateUtc dt:dt=""string"">2023-06-30T15:05:24Z</DateUtc></FrequencyChange></FrequencyChanges></Clock>\n";TMS_Ibrahim-57-2;75.028;1.0.0.561;1;v;832974698;2.0.10.242;2.0.10.242;06-30-2023;30/06/2023 15:05;17:05:24;2.0.10.147;0;;-999999;21;19564;0;1;1842;21406;1;1;1;2;1;2;1;BlockProcFischi;BlockList;1;75;0;;-999999;32;25428;0;1;5156;30584;1;1;1;1;ProcFischi1;ListBlockFischi;9;1;2;0;0;5;Pr3_B;200;1;op;5;2;2;1;9;1;0;TrialProc;428;720;Pr3_B;46;1674;1720;ListFischi1;0;;2;203;89960;8;15;1697;91657;304;1;1697;1;355;380;1393;1;1
TMS_Ibrahim;57;2;"<?xml version=""1.0""?>\n<Clock xmlns:dt=""urn:schemas-microsoft-com:datatypes""><Description dt:dt=""string"">E-Prime Primary Realtime Clock</Description><StartTime><Timestamp dt:dt=""int"">0</Timestamp><DateUtc dt:dt=""string"">2023-06-30T15:05:24Z</DateUtc></StartTime><FrequencyChanges><FrequencyChange><Frequency dt:dt=""r8"">3312832</Frequency><Timestamp dt:dt=""r8"">73846793664</Timestamp><Current dt:dt=""r8"">0</Current><DateUtc dt:dt=""string"">2023-06-30T15:05:24Z</DateUtc></FrequencyChange></FrequencyChanges></Clock>\n";TMS_Ibrahim-57-2;75.028;1.0.0.561;1;v;832974698;2.0.10.242;2.0.10.242;06-30-2023;30/06/2023 15:05;17:05:24;2.0.10.147;0;;-999999;21;19564;0;1;1842;21406;1;1;1;2;1;2;1;BlockProcFischi;BlockList;1;75;0;;-999999;32;25428;0;1;5156;30584;1;1;1;1;ProcFischi1;ListBlockFischi;10;1;1;0;0;3;Po3_B;225;2;op;3;2;39;1;10;2;0;TrialProc;573;1326;Po3_B;140;1732;1592;ListFischi1;0;;2;201;97219;13;13;1765;98984;197;1;1765;1;204;552;1568;1;1
TMS_Ibrahim;57;2;"<?xml version=""1.0""?>\n<Clock xmlns:dt=""urn:schemas-microsoft-com:datatypes""><Description dt:dt=""string"">E-Prime Primary Realtime Clock</Description><StartTime><Timestamp dt:dt=""int"">0</Timestamp><DateUtc dt:dt=""string"">2023-06-30T15:05:24Z</DateUtc></StartTime><FrequencyChanges><FrequencyChange><Frequency dt:dt=""r8"">3312832</Frequency><Timestamp dt:dt=""r8"">73846793664</Timestamp><Current dt:dt=""r8"">0</Current><DateUtc dt:dt=""string"">2023-06-30T15:05:24Z</DateUtc></FrequencyChange></FrequencyChanges></Clock>\n";TMS_Ibrahim-57-2;75.028;1.0.0.561;1;v;832974698;2.0.10.242;2.0.10.242;06-30-2023;30/06/2023 15:05;17:05:24;2.0.10.147;0;;-999999;21;19564;0;1;1842;21406;1;1;1;2;1;2;1;BlockProcFischi;BlockList;1;75;0;;-999999;32;25428;0;1;5156;30584;1;1;1;1;ProcFischi1;ListBlockFischi;11;1;1;0;0;3;Po5_B;200;2;op;3;2;36;1;11;2;0;TrialProc;725;989;Po5_B;43;1440;1483;ListFischi1;0;;2;203;104366;10;13;1466;105832;458;1;1466;1;444;240;1008;1;1
TMS_Ibrahim;57;2;"<?xml version=""1.0""?>\n<Clock xmlns:dt=""urn:schemas-microsoft-com:datatypes""><Description dt:dt=""string"">E-Prime Primary Realtime Clock</Description><StartTime><Timestamp dt:dt=""int"">0</Timestamp><DateUtc dt:dt=""string"">2023-06-30T15:05:24Z</DateUtc></StartTime><FrequencyChanges><FrequencyChange><Frequency dt:dt=""r8"">3312832</Frequency><Timestamp dt:dt=""r8"">73846793664</Timestamp><Current dt:dt=""r8"">0</Current><DateUtc dt:dt=""string"">2023-06-30T15:05:24Z</DateUtc></FrequencyChange></FrequencyChanges></Clock>\n";TMS_Ibrahim-57-2;75.028;1.0.0.561;1;v;832974698;2.0.10.242;2.0.10.242;06-30-2023;30/06/2023 15:05;17:05:24;2.0.10.147;0;;-999999;21;19564;0;1;1842;21406;1;1;1;2;1;2;1;BlockProcFischi;BlockList;1;75;0;;-999999;32;25428;0;1;5156;30584;1;1;1;1;ProcFischi1;ListBlockFischi;12;1;1;0;0;3;Po4_B;175;2;op;3;2;40;1;12;2;0;TrialProc;503;1348;Po4_B;263;1458;1720;ListFischi1;0;;2;201;111485;8;13;1483;112968;348;1;1483;1;544;595;1135;1;1
TMS_Ibrahim;57;2;"<?xml version=""1.0""?>\n<Clock xmlns:dt=""urn:schemas-microsoft-com:datatypes""><Description dt:dt=""string"">E-Prime Primary Realtime Clock</Description><StartTime><Timestamp dt:dt=""int"">0</Timestamp><DateUtc dt:dt=""string"">2023-06-30T15:05:24Z</DateUtc></StartTime><FrequencyChanges><FrequencyChange><Frequency dt:dt=""r8"">3312832</Frequency><Timestamp dt:dt=""r8"">73846793664</Timestamp><Current dt:dt=""r8"">0</Current><DateUtc dt:dt=""string"">2023-06-30T15:05:24Z</DateUtc></FrequencyChange></FrequencyChanges></Clock>\n";TMS_Ibrahim-57-2;75.028;1.0.0.561;1;v;832974698;2.0.10.242;2.0.10.242;06-30-2023;30/06/2023 15:05;17:05:24;2.0.10.147;0;;-999999;21;19564;0;1;1842;21406;1;1;1;2;1;2;1;BlockProcFischi;BlockList;1;75;0;;-999999;32;25428;0;1;5156;30584;1;1;1;1;ProcFischi1;ListBlockFischi;13;1;1;0;0;5;Po5_B;225;4;ug;5;2;52;1;13;4;1;TrialProc;891;987;Po5_B;29;1450;1479;ListFischi1;0;;2;203;118803;7;15;1477;120280;310;1;1477;1;313;508;1167;1;1
TMS_Ibrahim;57;2;"<?xml version=""1.0""?>\n<Clock xmlns:dt=""urn:schemas-microsoft-com:datatypes""><Description dt:dt=""string"">E-Prime Primary Realtime Clock</Description><StartTime><Timestamp dt:dt=""int"">0</Timestamp><DateUtc dt:dt=""string"">2023-06-30T15:05:24Z</DateUtc></StartTime><FrequencyChanges><FrequencyChange><Frequency dt:dt=""r8"">3312832</Frequency><Timestamp dt:dt=""r8"">73846793664</Timestamp><Current dt:dt=""r8"">0</Current><DateUtc dt:dt=""string"">2023-06-30T15:05:24Z</DateUtc></FrequencyChange></FrequencyChanges></Clock>\n";TMS_Ibrahim-57-2;75.028;1.0.0.561;1;v;832974698;2.0.10.242;2.0.10.242;06-30-2023;30/06/2023 15:05;17:05:24;2.0.10.147;0;;-999999;21;19564;0;1;1842;21406;1;1;1;2;1;2;1;BlockProcFischi;BlockList;1;75;0;;-999999;32;25428;0;1;5156;30584;1;1;1;1;ProcFischi1;ListBlockFischi;14;1;1;0;0;5;Po8_B;200;4;ug;5;2;58;1;14;4;1;TrialProc;562;1252;Po8_B;179;1406;1586;ListFischi1;0;;2;203;126067;7;15;1429;127496;229;1;1429;1;702;480;1200;1;1
TMS_Ibrahim;57;2;"<?xml version=""1.0""?>\n<Clock xmlns:dt=""urn:schemas-microsoft-com:datatypes""><Description dt:dt=""string"">E-Prime Primary Realtime Clock</Description><StartTime><Timestamp dt:dt=""int"">0</Timestamp><DateUtc dt:dt=""string"">2023-06-30T15:05:24Z</DateUtc></StartTime><FrequencyChanges><FrequencyChange><Frequency dt:dt=""r8"">3312832</Frequency><Timestamp dt:dt=""r8"">73846793664</Timestamp><Current dt:dt=""r8"">0</Current><DateUtc dt:dt=""string"">2023-06-30T15:05:24Z</DateUtc></FrequencyChange></FrequencyChanges></Clock>\n";TMS_Ibrahim-57-2;75.028;1.0.0.561;1;v;832974698;2.0.10.242;2.0.10.242;06-30-2023;30/06/2023 15:05;17:05:24;2.0.10.147;0;;-999999;21;19564;0;1;1842;21406;1;1;1;2;1;2;1;BlockProcFischi;BlockList;1;75;0;;-999999;32;25428;0;1;5156;30584;1;1;1;1;ProcFischi1;ListBlockFischi;15;1;2;0;0;3;Pr4_B;225;3;ug;3;2;24;1;15;3;1;TrialProc;605;684;Pr4_B;37;1221;1258;ListFischi1;0;;2;201;133567;11;13;1241;134808;345;1;1241;1;1180;332;896;1;1
TMS_Ibrahim;57;2;"<?xml version=""1.0""?>\n<Clock xmlns:dt=""urn:schemas-microsoft-com:datatypes""><Description dt:dt=""string"">E-Prime Primary Realtime Clock</Description><StartTime><Timestamp dt:dt=""int"">0</Timestamp><DateUtc dt:dt=""string"">2023-06-30T15:05:24Z</DateUtc></StartTime><FrequencyChanges><FrequencyChange><Frequency dt:dt=""r8"">3312832</Frequency><Timestamp dt:dt=""r8"">73846793664</Timestamp><Current dt:dt=""r8"">0</Current><DateUtc dt:dt=""string"">2023-06-30T15:05:24Z</DateUtc></FrequencyChange></FrequencyChanges></Clock>\n";TMS_Ibrahim-57-2;75.028;1.0.0.561;1;v;832974698;2.0.10.242;2.0.10.242;06-30-2023;30/06/2023 15:05;17:05:24;2.0.10.147;0;;-999999;21;19564;0;1;1842;21406;1;1;1;2;1;2;1;BlockProcFischi;BlockList;1;75;0;;-999999;32;25428;0;1;5156;30584;1;1;1;1;ProcFischi1;ListBlockFischi;16;1;1;1;1;3;Pomod_B;175;2;op;3;2;48;1;16;2;0;TrialProc;787;1323;Pomod_B;14;1697;1683;ListFischi1;0;;2;203;140698;11;13;1725;142423;333;1;1725;1;985;202;1392;1;1
TMS_Ibrahim;57;2;"<?xml version=""1.0""?>\n<Clock xmlns:dt=""urn:schemas-microsoft-com:datatypes""><Description dt:dt=""string"">E-Prime Primary Realtime Clock</Description><StartTime><Timestamp dt:dt=""int"">0</Timestamp><DateUtc dt:dt=""string"">2023-06-30T15:05:24Z</DateUtc></StartTime><FrequencyChanges><FrequencyChange><Frequency dt:dt=""r8"">3312832</Frequency><Timestamp dt:dt=""r8"">73846793664</Timestamp><Current dt:dt=""r8"">0</Current><DateUtc dt:dt=""string"">2023-06-30T15:05:24Z</DateUtc></FrequencyChange></FrequencyChanges></Clock>\n";TMS_Ibrahim-57-2;75.028;1.0.0.561;1;v;832974698;2.0.10.242;2.0.10.242;06-30-2023;30/06/2023 15:05;17:05:24;2.0.10.147;0;;-999999;21;19564;0;1;1842;21406;1;1;1;2;1;2;1;BlockProcFischi;BlockList;1;75;0;;-999999;32;25428;0;1;5156;30584;1;1;1;1;ProcFischi1;ListBlockFischi;17;1;2;0;0;5;Pr8_B;175;1;op;5;2;5;1;17;1;0;TrialProc;1318;722;Pr8_B;61;1810;1748;ListFischi1;0;;2;201;148003;10;15;1844;149847;340;1;1844;1;589;497;1504;1;1
TMS_Ibrahim;57;2;"<?xml version=""1.0""?>\n<Clock xmlns:dt=""urn:schemas-microsoft-com:datatypes""><Description dt:dt=""string"">E-Prime Primary Realtime Clock</Description><StartTime><Timestamp dt:dt=""int"">0</Timestamp><DateUtc dt:dt=""string"">2023-06-30T15:05:24Z</DateUtc></StartTime><FrequencyChanges><FrequencyChange><Frequency dt:dt=""r8"">3312832</Frequency><Timestamp dt:dt=""r8"">73846793664</Timestamp><Current dt:dt=""r8"">0</Current><DateUtc dt:dt=""string"">2023-06-30T15:05:24Z</DateUtc></FrequencyChange></FrequencyChanges></Clock>\n";TMS_Ibrahim-57-2;75.028;1.0.0.561;1;v;832974698;2.0.10.242;2.0.10.242;06-30-2023;30/06/2023 15:05;17:05:24;2.0.10.147;0;;-999999;21;19564;0;1;1842;21406;1;1;1;2;1;2;1;BlockProcFischi;BlockList;1;75;0;;-999999;32;25428;0;1;5156;30584;1;1;1;1;ProcFischi1;ListBlockFischi;18;1;1;0;0;5;Po2_B;200;4;ug;5;2;54;1;18;4;1;TrialProc;668;1587;Po2_B;125;1690;1814;ListFischi1;0;;2;203;155347;10;15;1732;157079;372;1;1732;1;342;394;1360;1;1
TMS_Ibrahim;57;2;"<?xml version=""1.0""?>\n<Clock xmlns:dt=""urn:schemas-microsoft-com:datatypes""><Description dt:dt=""string"">E-Prime Primary Realtime Clock</Description><StartTime><Timestamp dt:dt=""int"">0</Timestamp><DateUtc dt:dt=""string"">2023-06-30T15:05:24Z</DateUtc></StartTime><FrequencyChanges><FrequencyChange><Frequency dt:dt=""r8"">3312832</Frequency><Timestamp dt:dt=""r8"">73846793664</Timestamp><Current dt:dt=""r8"">0</Current><DateUtc dt:dt=""string"">2023-06-30T15:05:24Z</DateUtc></FrequencyChange></FrequencyChanges></Clock>\n";TMS_Ibrahim-57-2;75.028;1.0.0.561;1;v;832974698;2.0.10.242;2.0.10.242;06-30-2023;30/06/2023 15:05;17:05:24;2.0.10.147;0;;-999999;21;19564;0;1;1842;21406;1;1;1;2;1;2;1;BlockProcFischi;BlockList;1;75;0;;-999999;32;25428;0;1;5156;30584;1;1;1;1;ProcFischi1;ListBlockFischi;19;1;1;1;0;3;Pomod_B;150;2;op;3;2;47;1;19;2;0;TrialProc;548;1321;Pomod_B;132;1813;1681;ListFischi1;0;;2;203;162691;9;13;1844;164535;324;1;1844;1;455;286;1520;1;1
TMS_Ibrahim;57;2;"<?xml version=""1.0""?>\n<Clock xmlns:dt=""urn:schemas-microsoft-com:datatypes""><Description dt:dt=""string"">E-Prime Primary Realtime Clock</Description><StartTime><Timestamp dt:dt=""int"">0</Timestamp><DateUtc dt:dt=""string"">2023-06-30T15:05:24Z</DateUtc></StartTime><FrequencyChanges><FrequencyChange><Frequency dt:dt=""r8"">3312832</Frequency><Timestamp dt:dt=""r8"">73846793664</Timestamp><Current dt:dt=""r8"">0</Current><DateUtc dt:dt=""string"">2023-06-30T15:05:24Z</DateUtc></FrequencyChange></FrequencyChanges></Clock>\n";TMS_Ibrahim-57-2;75.028;1.0.0.561;1;v;832974698;2.0.10.242;2.0.10.242;06-30-2023;30/06/2023 15:05;17:05:24;2.0.10.147;0;;-999999;21;19564;0;1;1842;21406;1;1;1;2;1;2;1;BlockProcFischi;BlockList;1;75;0;;-999999;32;25428;0;1;5156;30584;1;1;1;1;ProcFischi1;ListBlockFischi;20;1;2;0;0;3;Pr5_B;200;3;ug;3;2;30;1;20;3;1;TrialProc;486;687;Pr5_B;228;1514;1287;ListFischi1;0;;2;201;170084;14;13;1539;171623;291;1;1539;1;822;391;1248;1;1
TMS_Ibrahim;57;2;"<?xml version=""1.0""?>\n<Clock xmlns:dt=""urn:schemas-microsoft-com:datatypes""><Description dt:dt=""string"">E-Prime Primary Realtime Clock</Description><StartTime><Timestamp dt:dt=""int"">0</Timestamp><DateUtc dt:dt=""string"">2023-06-30T15:05:24Z</DateUtc></StartTime><FrequencyChanges><FrequencyChange><Frequency dt:dt=""r8"">3312832</Frequency><Timestamp dt:dt=""r8"">73846793664</Timestamp><Current dt:dt=""r8"">0</Current><DateUtc dt:dt=""string"">2023-06-30T15:05:24Z</DateUtc></FrequencyChange></FrequencyChanges></Clock>\n";TMS_Ibrahim-57-2;75.028;1.0.0.561;1;v;832974698;2.0.10.242;2.0.10.242;06-30-2023;30/06/2023 15:05;17:05:24;2.0.10.147;0;;-999999;21;19564;0;1;1842;21406;1;1;1;2;1;2;1;BlockProcFischi;BlockList;1;75;0;;-999999;32;25428;0;1;5156;30584;1;1;1;1;ProcFischi1;ListBlockFischi;21;0;2;0;0;5;Pr2_B;;1;op;1;2;11;1;21;1;0;TrialProc;755;724;Pr2_B;228;1514;1259;ListFischi1;0;;2;203;176976;12;15;1703;178679;359;1;1;1;57;322;-358;1;0
TMS_Ibrahim;57;2;"<?xml version=""1.0""?>\n<Clock xmlns:dt=""urn:schemas-microsoft-com:datatypes""><Description dt:dt=""string"">E-Prime Primary Realtime Clock</Description><StartTime><Timestamp dt:dt=""int"">0</Timestamp><DateUtc dt:dt=""string"">2023-06-30T15:05:24Z</DateUtc></StartTime><FrequencyChanges><FrequencyChange><Frequency dt:dt=""r8"">3312832</Frequency><Timestamp dt:dt=""r8"">73846793664</Timestamp><Current dt:dt=""r8"">0</Current><DateUtc dt:dt=""string"">2023-06-30T15:05:24Z</DateUtc></FrequencyChange></FrequencyChanges></Clock>\n";TMS_Ibrahim-57-2;75.028;1.0.0.561;1;v;832974698;2.0.10.242;2.0.10.242;06-30-2023;30/06/2023 15:05;17:05:24;2.0.10.147;0;;-999999;21;19564;0;1;1842;21406;1;1;1;2;1;2;1;BlockProcFischi;BlockList;1;75;0;;-999999;32;25428;0;1;5156;30584;1;1;1;1;ProcFischi1;ListBlockFischi;22;1;2;0;1;3;Pr5_B;200;3;ug;3;2;20;1;22;3;1;TrialProc;692;683;Pr5_B;84;1367;1283;ListFischi1;0;;2;201;184415;11;13;1399;185814;359;1;1399;1;375;377;1040;1;1
TMS_Ibrahim;57;2;"<?xml version=""1.0""?>\n<Clock xmlns:dt=""urn:schemas-microsoft-com:datatypes""><Description dt:dt=""string"">E-Prime Primary Realtime Clock</Description><StartTime><Timestamp dt:dt=""int"">0</Timestamp><DateUtc dt:dt=""string"">2023-06-30T15:05:24Z</DateUtc></StartTime><FrequencyChanges><FrequencyChange><Frequency dt:dt=""r8"">3312832</Frequency><Timestamp dt:dt=""r8"">73846793664</Timestamp><Current dt:dt=""r8"">0</Current><DateUtc dt:dt=""string"">2023-06-30T15:05:24Z</DateUtc></FrequencyChange></FrequencyChanges></Clock>\n";TMS_Ibrahim-57-2;75.028;1.0.0.561;1;v;832974698;2.0.10.242;2.0.10.242;06-30-2023;30/06/2023 15:05;17:05:24;2.0.10.147;0;;-999999;21;19564;0;1;1842;21406;1;1;1;2;1;2;1;BlockProcFischi;BlockList;1;75;0;;-999999;32;25428;0;1;5156;30584;1;1;1;1;ProcFischi1;ListBlockFischi;23;1;1;0;0;5;Po3_B;175;4;ug;5;2;60;1;23;4;1;TrialProc;456;1367;Po3_B;155;1432;1586;ListFischi1;0;;2;203;191655;8;15;1455;193110;319;1;1455;1;343;550;1136;1;1
TMS_Ibrahim;57;2;"<?xml version=""1.0""?>\n<Clock xmlns:dt=""urn:schemas-microsoft-com:datatypes""><Description dt:dt=""string"">E-Prime Primary Realtime Clock</Description><StartTime><Timestamp dt:dt=""int"">0</Timestamp><DateUtc dt:dt=""string"">2023-06-30T15:05:24Z</DateUtc></StartTime><FrequencyChanges><FrequencyChange><Frequency dt:dt=""r8"">3312832</Frequency><Timestamp dt:dt=""r8"">73846793664</Timestamp><Current dt:dt=""r8"">0</Current><DateUtc dt:dt=""string"">2023-06-30T15:05:24Z</DateUtc></FrequencyChange></FrequencyChanges></Clock>\n";TMS_Ibrahim-57-2;75.028;1.0.0.561;1;v;832974698;2.0.10.242;2.0.10.242;06-30-2023;30/06/2023 15:05;17:05:24;2.0.10.147;0;;-999999;21;19564;0;1;1842;21406;1;1;1;2;1;2;1;BlockProcFischi;BlockList;1;75;0;;-999999;32;25428;0;1;5156;30584;1;1;1;1;ProcFischi1;ListBlockFischi;24;1;1;0;0;3;Po5_B;150;2;op;3;2;41;1;24;2;0;TrialProc;399;990;Po5_B;181;1303;1484;ListFischi1;0;;2;201;198888;12;13;1326;200214;222;1;1326;1;322;540;1104;1;1
TMS_Ibrahim;57;2;"<?xml version=""1.0""?>\n<Clock xmlns:dt=""urn:schemas-microsoft-com:datatypes""><Description dt:dt=""string"">E-Prime Primary Realtime Clock</Description><StartTime><Timestamp dt:dt=""int"">0</Timestamp><DateUtc dt:dt=""string"">2023-06-30T15:05:24Z</DateUtc></StartTime><FrequencyChanges><FrequencyChange><Frequency dt:dt=""r8"">3312832</Frequency><Timestamp dt:dt=""r8"">73846793664</Timestamp><Current dt:dt=""r8"">0</Current><DateUtc dt:dt=""string"">2023-06-30T15:05:24Z</DateUtc></FrequencyChange></FrequencyChanges></Clock>\n";TMS_Ibrahim-57-2;75.028;1.0.0.561;1;v;832974698;2.0.10.242;2.0.10.242;06-30-2023;30/06/2023 15:05;17:05:24;2.0.10.147;0;;-999999;21;19564;0;1;1842;21406;1;1;1;2;1;2;1;BlockProcFischi;BlockList;1;75;0;;-999999;32;25428;0;1;5156;30584;1;1;1;1;ProcFischi1;ListBlockFischi;25;1;1;0;1;3;Po3_B;150;2;op;3;2;34;1;25;2;0;TrialProc;520;1318;Po3_B;123;1461;1584;ListFischi1;0;;2;203;206291;7;13;1491;207782;323;1;1491;1;471;557;1168;1;1
TMS_Ibrahim;57;2;"<?xml version=""1.0""?>\n<Clock xmlns:dt=""urn:schemas-microsoft-com:datatypes""><Description dt:dt=""string"">E-Prime Primary Realtime Clock</Description><StartTime><Timestamp dt:dt=""int"">0</Timestamp><DateUtc dt:dt=""string"">2023-06-30T15:05:24Z</DateUtc></StartTime><FrequencyChanges><FrequencyChange><Frequency dt:dt=""r8"">3312832</Frequency><Timestamp dt:dt=""r8"">73846793664</Timestamp><Current dt:dt=""r8"">0</Current><DateUtc dt:dt=""string"">2023-06-30T15:05:24Z</DateUtc></FrequencyChange></FrequencyChanges></Clock>\n";TMS_Ibrahim-57-2;75.028;1.0.0.561;1;v;832974698;2.0.10.242;2.0.10.242;06-30-2023;30/06/2023 15:05;17:05:24;2.0.10.147;0;;-999999;21;19564;0;1;1842;21406;1;1;1;2;1;2;1;BlockProcFischi;BlockList;1;75;0;;-999999;32;25428;0;1;5156;30584;1;1;1;1;ProcFischi1;ListBlockFischi;26;1;2;0;0;3;Pr4_B;175;3;ug;3;2;29;1;26;3;1;TrialProc;367;688;Pr4_B;30;1291;1262;ListFischi1;0;;2;201;213453;15;133;2409;215862;345;1;1321;1;504;255;976;1;1
TMS_Ibrahim;57;2;"<?xml version=""1.0""?>\n<Clock xmlns:dt=""urn:schemas-microsoft-com:datatypes""><Description dt:dt=""string"">E-Prime Primary Realtime Clock</Description><StartTime><Timestamp dt:dt=""int"">0</Timestamp><DateUtc dt:dt=""string"">2023-06-30T15:05:24Z</DateUtc></StartTime><FrequencyChanges><FrequencyChange><Frequency dt:dt=""r8"">3312832</Frequency><Timestamp dt:dt=""r8"">73846793664</Timestamp><Current dt:dt=""r8"">0</Current><DateUtc dt:dt=""string"">2023-06-30T15:05:24Z</DateUtc></FrequencyChange></FrequencyChanges></Clock>\n";TMS_Ibrahim-57-2;75.028;1.0.0.561;1;v;832974698;2.0.10.242;2.0.10.242;06-30-2023;30/06/2023 15:05;17:05:24;2.0.10.147;0;;-999999;21;19564;0;1;1842;21406;1;1;1;2;1;2;1;BlockProcFischi;BlockList;1;75;0;;-999999;32;25428;0;1;5156;30584;1;1;1;1;ProcFischi1;ListBlockFischi;27;1;2;0;0;3;Pr8_B;150;3;ug;3;2;21;1;27;3;1;TrialProc;518;721;Pr8_B;81;1666;1747;ListFischi1;0;;2;203;220603;9;13;1691;222294;123;1;1691;1;714;276;1568;1;1
TMS_Ibrahim;57;2;"<?xml version=""1.0""?>\n<Clock xmlns:dt=""urn:schemas-microsoft-com:datatypes""><Description dt:dt=""string"">E-Prime Primary Realtime Clock</Description><StartTime><Timestamp dt:dt=""int"">0</Timestamp><DateUtc dt:dt=""string"">2023-06-30T15:05:24Z</DateUtc></StartTime><FrequencyChanges><FrequencyChange><Frequency dt:dt=""r8"">3312832</Frequency><Timestamp dt:dt=""r8"">73846793664</Timestamp><Current dt:dt=""r8"">0</Current><DateUtc dt:dt=""string"">2023-06-30T15:05:24Z</DateUtc></FrequencyChange></FrequencyChanges></Clock>\n";TMS_Ibrahim-57-2;75.028;1.0.0.561;1;v;832974698;2.0.10.242;2.0.10.242;06-30-2023;30/06/2023 15:05;17:05:24;2.0.10.147;0;;-999999;21;19564;0;1;1842;21406;1;1;1;2;1;2;1;BlockProcFischi;BlockList;1;75;0;;-999999;32;25428;0;1;5156;30584;1;1;1;1;ProcFischi1;ListBlockFischi;28;1;2;0;0;5;Pr2_B;150;1;op;5;2;1;1;28;1;0;TrialProc;497;726;Pr2_B;149;1408;1259;ListFischi1;0;;2;203;227970;12;15;1428;229398;340;1;1428;1;785;590;1088;1;1
TMS_Ibrahim;57;2;"<?xml version=""1.0""?>\n<Clock xmlns:dt=""urn:schemas-microsoft-com:datatypes""><Description dt:dt=""string"">E-Prime Primary Realtime Clock</Description><StartTime><Timestamp dt:dt=""int"">0</Timestamp><DateUtc dt:dt=""string"">2023-06-30T15:05:24Z</DateUtc></StartTime><FrequencyChanges><FrequencyChange><Frequency dt:dt=""r8"">3312832</Frequency><Timestamp dt:dt=""r8"">73846793664</Timestamp><Current dt:dt=""r8"">0</Current><DateUtc dt:dt=""string"">2023-06-30T15:05:24Z</DateUtc></FrequencyChange></FrequencyChanges></Clock>\n";TMS_Ibrahim-57-2;75.028;1.0.0.561;1;v;832974698;2.0.10.242;2.0.10.242;06-30-2023;30/06/2023 15:05;17:05:24;2.0.10.147;0;;-999999;21;19564;0;1;1842;21406;1;1;1;2;1;2;1;BlockProcFischi;BlockList;1;75;0;;-999999;32;25428;0;1;5156;30584;1;1;1;1;ProcFischi1;ListBlockFischi;29;1;1;0;0;5;Po5_B;175;4;ug;5;2;57;1;29;4;1;TrialProc;469;993;Po5_B;74;1412;1485;ListFischi1;0;;2;201;234847;13;15;1430;236277;406;1;1430;1;234;471;1024;1;1
TMS_Ibrahim;57;2;"<?xml version=""1.0""?>\n<Clock xmlns:dt=""urn:schemas-microsoft-com:datatypes""><Description dt:dt=""string"">E-Prime Primary Realtime Clock</Description><StartTime><Timestamp dt:dt=""int"">0</Timestamp><DateUtc dt:dt=""string"">2023-06-30T15:05:24Z</DateUtc></StartTime><FrequencyChanges><FrequencyChange><Frequency dt:dt=""r8"">3312832</Frequency><Timestamp dt:dt=""r8"">73846793664</Timestamp><Current dt:dt=""r8"">0</Current><DateUtc dt:dt=""string"">2023-06-30T15:05:24Z</DateUtc></FrequencyChange></FrequencyChanges></Clock>\n";TMS_Ibrahim-57-2;75.028;1.0.0.561;1;v;832974698;2.0.10.242;2.0.10.242;06-30-2023;30/06/2023 15:05;17:05:24;2.0.10.147;0;;-999999;21;19564;0;1;1842;21406;1;1;1;2;1;2;1;BlockProcFischi;BlockList;1;75;0;;-999999;32;25428;0;1;5156;30584;1;1;1;1;ProcFischi1;ListBlockFischi;30;1;2;0;0;3;Pr8_B;125;3;ug;3;2;26;1;30;3;1;TrialProc;556;723;Pr8_B;131;1618;1749;ListFischi1;0;;2;203;242181;9;13;1648;243829;352;1;1648;1;461;316;1296;1;1
TMS_Ibrahim;57;2;"<?xml version=""1.0""?>\n<Clock xmlns:dt=""urn:schemas-microsoft-com:datatypes""><Description dt:dt=""string"">E-Prime Primary Realtime Clock</Description><StartTime><Timestamp dt:dt=""int"">0</Timestamp><DateUtc dt:dt=""string"">2023-06-30T15:05:24Z</DateUtc></StartTime><FrequencyChanges><FrequencyChange><Frequency dt:dt=""r8"">3312832</Frequency><Timestamp dt:dt=""r8"">73846793664</Timestamp><Current dt:dt=""r8"">0</Current><DateUtc dt:dt=""string"">2023-06-30T15:05:24Z</DateUtc></FrequencyChange></FrequencyChanges></Clock>\n";TMS_Ibrahim-57-2;75.028;1.0.0.561;1;v;832974698;2.0.10.242;2.0.10.242;06-30-2023;30/06/2023 15:05;17:05:24;2.0.10.147;0;;-999999;21;19564;0;1;1842;21406;1;1;1;2;1;2;1;BlockProcFischi;BlockList;1;75;0;;-999999;32;25428;0;1;5156;30584;1;1;1;1;ProcFischi1;ListBlockFischi;31;1;1;0;0;3;Po4_B;125;2;op;3;2;45;1;31;2;0;TrialProc;454;1350;Po4_B;287;1436;1723;ListFischi1;0;;2;201;249392;9;13;1461;250853;373;1;1461;1;512;590;1088;1;1
TMS_Ibrahim;57;2;"<?xml version=""1.0""?>\n<Clock xmlns:dt=""urn:schemas-microsoft-com:datatypes""><Description dt:dt=""string"">E-Prime Primary Realtime Clock</Description><StartTime><Timestamp dt:dt=""int"">0</Timestamp><DateUtc dt:dt=""string"">2023-06-30T15:05:24Z</DateUtc></StartTime><FrequencyChanges><FrequencyChange><Frequency dt:dt=""r8"">3312832</Frequency><Timestamp dt:dt=""r8"">73846793664</Timestamp><Current dt:dt=""r8"">0</Current><DateUtc dt:dt=""string"">2023-06-30T15:05:24Z</DateUtc></FrequencyChange></FrequencyChanges></Clock>\n";TMS_Ibrahim-57-2;75.028;1.0.0.561;1;v;832974698;2.0.10.242;2.0.10.242;06-30-2023;30/06/2023 15:05;17:05:24;2.0.10.147;0;;-999999;21;19564;0;1;1842;21406;1;1;1;2;1;2;1;BlockProcFischi;BlockList;1;75;0;;-999999;32;25428;0;1;5156;30584;1;1;1;1;ProcFischi1;ListBlockFischi;32;1;1;0;1;3;Po3_B;125;2;op;3;2;44;1;32;2;0;TrialProc;501;1317;Po3_B;232;1352;1584;ListFischi1;0;;2;203;256832;7;13;1381;258213;310;1;1381;1;539;592;1071;1;1
TMS_Ibrahim;57;2;"<?xml version=""1.0""?>\n<Clock xmlns:dt=""urn:schemas-microsoft-com:datatypes""><Description dt:dt=""string"">E-Prime Primary Realtime Clock</Description><StartTime><Timestamp dt:dt=""int"">0</Timestamp><DateUtc dt:dt=""string"">2023-06-30T15:05:24Z</DateUtc></StartTime><FrequencyChanges><FrequencyChange><Frequency dt:dt=""r8"">3312832</Frequency><Timestamp dt:dt=""r8"">73846793664</Timestamp><Current dt:dt=""r8"">0</Current><DateUtc dt:dt=""string"">2023-06-30T15:05:24Z</DateUtc></FrequencyChange></FrequencyChanges></Clock>\n";TMS_Ibrahim-57-2;75.028;1.0.0.561;1;v;832974698;2.0.10.242;2.0.10.242;06-30-2023;30/06/2023 15:05;17:05:24;2.0.10.147;0;;-999999;21;19564;0;1;1842;21406;1;1;1;2;1;2;1;BlockProcFischi;BlockList;1;75;0;;-999999;32;25428;0;1;5156;30584;1;1;1;1;ProcFischi1;ListBlockFischi;33;1;1;0;0;5;Po4_B;150;4;ug;5;2;51;1;33;4;1;TrialProc;555;1350;Po4_B;227;1496;1723;ListFischi1;0;;2;201;264304;11;15;1525;265829;437;1;1525;1;220;403;1088;1;1
TMS_Ibrahim;57;2;"<?xml version=""1.0""?>\n<Clock xmlns:dt=""urn:schemas-microsoft-com:datatypes""><Description dt:dt=""string"">E-Prime Primary Realtime Clock</Description><StartTime><Timestamp dt:dt=""int"">0</Timestamp><DateUtc dt:dt=""string"">2023-06-30T15:05:24Z</DateUtc></StartTime><FrequencyChanges><FrequencyChange><Frequency dt:dt=""r8"">3312832</Frequency><Timestamp dt:dt=""r8"">73846793664</Timestamp><Current dt:dt=""r8"">0</Current><DateUtc dt:dt=""string"">2023-06-30T15:05:24Z</DateUtc></FrequencyChange></FrequencyChanges></Clock>\n";TMS_Ibrahim-57-2;75.028;1.0.0.561;1;v;832974698;2.0.10.242;2.0.10.242;06-30-2023;30/06/2023 15:05;17:05:24;2.0.10.147;0;;-999999;21;19564;0;1;1842;21406;1;1;1;2;1;2;1;BlockProcFischi;BlockList;1;75;0;;-999999;32;25428;0;1;5156;30584;1;1;1;1;ProcFischi1;ListBlockFischi;34;1;2;0;0;3;Pr3_B;125;3;ug;3;2;23;1;34;3;1;TrialProc;738;730;Pr3_B;194;1534;1729;ListFischi1;0;;2;203;271721;18;133;2492;274213;364;1;1564;1;370;390;1200;1;1
TMS_Ibrahim;57;2;"<?xml version=""1.0""?>\n<Clock xmlns:dt=""urn:schemas-microsoft-com:datatypes""><Description dt:dt=""string"">E-Prime Primary Realtime Clock</Description><StartTime><Timestamp dt:dt=""int"">0</Timestamp><DateUtc dt:dt=""string"">2023-06-30T15:05:24Z</DateUtc></StartTime><FrequencyChanges><FrequencyChange><Frequency dt:dt=""r8"">3312832</Frequency><Timestamp dt:dt=""r8"">73846793664</Timestamp><Current dt:dt=""r8"">0</Current><DateUtc dt:dt=""string"">2023-06-30T15:05:24Z</DateUtc></FrequencyChange></FrequencyChanges></Clock>\n";TMS_Ibrahim-57-2;75.028;1.0.0.561;1;v;832974698;2.0.10.242;2.0.10.242;06-30-2023;30/06/2023 15:05;17:05:24;2.0.10.147;0;;-999999;21;19564;0;1;1842;21406;1;1;1;2;1;2;1;BlockProcFischi;BlockList;1;75;0;;-999999;32;25428;0;1;5156;30584;1;1;1;1;ProcFischi1;ListBlockFischi;35;1;2;0;1;3;Pr3_B;125;3;ug;3;2;28;1;35;3;1;TrialProc;362;729;Pr3_B;60;1669;1729;ListFischi1;0;;2;201;278027;17;13;1689;279716;570;1;1689;1;1074;243;1119;1;1
TMS_Ibrahim;57;2;"<?xml version=""1.0""?>\n<Clock xmlns:dt=""urn:schemas-microsoft-com:datatypes""><Description dt:dt=""string"">E-Prime Primary Realtime Clock</Description><StartTime><Timestamp dt:dt=""int"">0</Timestamp><DateUtc dt:dt=""string"">2023-06-30T15:05:24Z</DateUtc></StartTime><FrequencyChanges><FrequencyChange><Frequency dt:dt=""r8"">3312832</Frequency><Timestamp dt:dt=""r8"">73846793664</Timestamp><Current dt:dt=""r8"">0</Current><DateUtc dt:dt=""string"">2023-06-30T15:05:24Z</DateUtc></FrequencyChange></FrequencyChanges></Clock>\n";TMS_Ibrahim-57-2;75.028;1.0.0.561;1;v;832974698;2.0.10.242;2.0.10.242;06-30-2023;30/06/2023 15:05;17:05:24;2.0.10.147;0;;-999999;21;19564;0;1;1842;21406;1;1;1;2;1;2;1;BlockProcFischi;BlockList;1;75;0;;-999999;32;25428;0;1;5156;30584;1;1;1;1;ProcFischi1;ListBlockFischi;36;1;1;0;2;3;Po5_B;125;2;op;3;2;46;1;36;2;0;TrialProc;628;987;Po5_B;116;1364;1481;ListFischi1;0;;2;203;285365;9;13;1391;286756;383;1;1391;1;451;235;1008;1;1
TMS_Ibrahim;57;2;"<?xml version=""1.0""?>\n<Clock xmlns:dt=""urn:schemas-microsoft-com:datatypes""><Description dt:dt=""string"">E-Prime Primary Realtime Clock</Description><StartTime><Timestamp dt:dt=""int"">0</Timestamp><DateUtc dt:dt=""string"">2023-06-30T15:05:24Z</DateUtc></StartTime><FrequencyChanges><FrequencyChange><Frequency dt:dt=""r8"">3312832</Frequency><Timestamp dt:dt=""r8"">73846793664</Timestamp><Current dt:dt=""r8"">0</Current><DateUtc dt:dt=""string"">2023-06-30T15:05:24Z</DateUtc></FrequencyChange></FrequencyChanges></Clock>\n";TMS_Ibrahim-57-2;75.028;1.0.0.561;1;v;832974698;2.0.10.242;2.0.10.242;06-30-2023;30/06/2023 15:05;17:05:24;2.0.10.147;0;;-999999;21;19564;0;1;1842;21406;1;1;1;2;1;2;1;BlockProcFischi;BlockList;1;75;0;;-999999;32;25428;0;1;5156;30584;1;1;1;1;ProcFischi1;ListBlockFischi;37;1;2;1;0;5;Prmod_B;150;1;op;5;2;15;1;37;1;0;TrialProc;494;1322;Prmod_B;56;1712;1655;ListFischi1;0;;2;201;292629;9;15;1743;294372;402;1;1743;1;851;541;1341;1;1
TMS_Ibrahim;57;2;"<?xml version=""1.0""?>\n<Clock xmlns:dt=""urn:schemas-microsoft-com:datatypes""><Description dt:dt=""string"">E-Prime Primary Realtime Clock</Description><StartTime><Timestamp dt:dt=""int"">0</Timestamp><DateUtc dt:dt=""string"">2023-06-30T15:05:24Z</DateUtc></StartTime><FrequencyChanges><FrequencyChange><Frequency dt:dt=""r8"">3312832</Frequency><Timestamp dt:dt=""r8"">73846793664</Timestamp><Current dt:dt=""r8"">0</Current><DateUtc dt:dt=""string"">2023-06-30T15:05:24Z</DateUtc></FrequencyChange></FrequencyChanges></Clock>\n";TMS_Ibrahim-57-2;75.028;1.0.0.561;1;v;832974698;2.0.10.242;2.0.10.242;06-30-2023;30/06/2023 15:05;17:05:24;2.0.10.147;0;;-999999;21;19564;0;1;1842;21406;1;1;1;2;1;2;1;BlockProcFischi;BlockList;1;75;0;;-999999;32;25428;0;1;5156;30584;1;1;1;1;ProcFischi1;ListBlockFischi;38;1;2;0;0;5;Pr4_B;125;1;op;5;2;8;1;38;1;0;TrialProc;611;681;Pr4_B;77;1332;1255;ListFischi1;0;;2;203;299840;9;15;1364;301204;388;1;1364;1;1559;289;976;1;1
TMS_Ibrahim;57;2;"<?xml version=""1.0""?>\n<Clock xmlns:dt=""urn:schemas-microsoft-com:datatypes""><Description dt:dt=""string"">E-Prime Primary Realtime Clock</Description><StartTime><Timestamp dt:dt=""int"">0</Timestamp><DateUtc dt:dt=""string"">2023-06-30T15:05:24Z</DateUtc></StartTime><FrequencyChanges><FrequencyChange><Frequency dt:dt=""r8"">3312832</Frequency><Timestamp dt:dt=""r8"">73846793664</Timestamp><Current dt:dt=""r8"">0</Current><DateUtc dt:dt=""string"">2023-06-30T15:05:24Z</DateUtc></FrequencyChange></FrequencyChanges></Clock>\n";TMS_Ibrahim-57-2;75.028;1.0.0.561;1;v;832974698;2.0.10.242;2.0.10.242;06-30-2023;30/06/2023 15:05;17:05:24;2.0.10.147;0;;-999999;21;19564;0;1;1842;21406;1;1;1;2;1;2;1;BlockProcFischi;BlockList;1;75;0;;-999999;32;25428;0;1;5156;30584;1;1;1;1;ProcFischi1;ListBlockFischi;39;1;2;0;0;5;Pr4_B;100;1;op;5;2;3;1;39;1;0;TrialProc;403;682;Pr4_B;68;1322;1254;ListFischi1;0;;3;203;306837;9;15;1343;308180;271;1;1343;1;975;516;1072;1;1
TMS_Ibrahim;57;2;"<?xml version=""1.0""?>\n<Clock xmlns:dt=""urn:schemas-microsoft-com:datatypes""><Description dt:dt=""string"">E-Prime Primary Realtime Clock</Description><StartTime><Timestamp dt:dt=""int"">0</Timestamp><DateUtc dt:dt=""string"">2023-06-30T15:05:24Z</DateUtc></StartTime><FrequencyChanges><FrequencyChange><Frequency dt:dt=""r8"">3312832</Frequency><Timestamp dt:dt=""r8"">73846793664</Timestamp><Current dt:dt=""r8"">0</Current><DateUtc dt:dt=""string"">2023-06-30T15:05:24Z</DateUtc></FrequencyChange></FrequencyChanges></Clock>\n";TMS_Ibrahim-57-2;75.028;1.0.0.561;1;v;832974698;2.0.10.242;2.0.10.242;06-30-2023;30/06/2023 15:05;17:05:24;2.0.10.147;0;;-999999;21;19564;0;1;1842;21406;1;1;1;2;1;2;1;BlockProcFischi;BlockList;1;75;0;;-999999;32;25428;0;1;5156;30584;1;1;1;1;ProcFischi1;ListBlockFischi;40;1;2;0;0;5;Pr3_B;75;1;op;5;2;12;1;40;1;0;TrialProc;493;727;Pr3_B;152;1575;1727;ListFischi1;0;;2;201;313909;14;155;2255;316164;591;1;1599;1;408;350;1008;1;1
TMS_Ibrahim;57;2;"<?xml version=""1.0""?>\n<Clock xmlns:dt=""urn:schemas-microsoft-com:datatypes""><Description dt:dt=""string"">E-Prime Primary Realtime Clock</Description><StartTime><Timestamp dt:dt=""int"">0</Timestamp><DateUtc dt:dt=""string"">2023-06-30T15:05:24Z</DateUtc></StartTime><FrequencyChanges><FrequencyChange><Frequency dt:dt=""r8"">3312832</Frequency><Timestamp dt:dt=""r8"">73846793664</Timestamp><Current dt:dt=""r8"">0</Current><DateUtc dt:dt=""string"">2023-06-30T15:05:24Z</DateUtc></FrequencyChange></FrequencyChanges></Clock>\n";TMS_Ibrahim-57-2;75.028;1.0.0.561;1;v;832974698;2.0.10.242;2.0.10.242;06-30-2023;30/06/2023 15:05;17:05:24;2.0.10.147;0;;-999999;21;19564;0;1;1842;21406;1;1;1;2;1;2;1;BlockProcFischi;BlockList;1;75;0;;-999999;32;25428;0;1;5156;30584;1;1;1;1;ProcFischi1;ListBlockFischi;41;1;1;0;2;3;Po2_B;125;2;op;3;2;38;1;41;2;0;TrialProc;488;1584;Po2_B;239;1572;1810;ListFischi1;0;;2;203;320461;6;13;1607;322068;535;1;1607;1;169;573;1072;1;1
TMS_Ibrahim;57;2;"<?xml version=""1.0""?>\n<Clock xmlns:dt=""urn:schemas-microsoft-com:datatypes""><Description dt:dt=""string"">E-Prime Primary Realtime Clock</Description><StartTime><Timestamp dt:dt=""int"">0</Timestamp><DateUtc dt:dt=""string"">2023-06-30T15:05:24Z</DateUtc></StartTime><FrequencyChanges><FrequencyChange><Frequency dt:dt=""r8"">3312832</Frequency><Timestamp dt:dt=""r8"">73846793664</Timestamp><Current dt:dt=""r8"">0</Current><DateUtc dt:dt=""string"">2023-06-30T15:05:24Z</DateUtc></FrequencyChange></FrequencyChanges></Clock>\n";TMS_Ibrahim-57-2;75.028;1.0.0.561;1;v;832974698;2.0.10.242;2.0.10.242;06-30-2023;30/06/2023 15:05;17:05:24;2.0.10.147;0;;-999999;21;19564;0;1;1842;21406;1;1;1;2;1;2;1;BlockProcFischi;BlockList;1;75;0;;-999999;32;25428;0;1;5156;30584;1;1;1;1;ProcFischi1;ListBlockFischi;42;1;2;0;1;5;Pr8_B;75;1;op;5;2;10;1;42;1;0;TrialProc;548;725;Pr8_B;95;1656;1751;ListFischi1;0;;2;201;327852;13;155;3064;330916;455;1;1688;1;1021;299;1233;1;1
TMS_Ibrahim;57;2;"<?xml version=""1.0""?>\n<Clock xmlns:dt=""urn:schemas-microsoft-com:datatypes""><Description dt:dt=""string"">E-Prime Primary Realtime Clock</Description><StartTime><Timestamp dt:dt=""int"">0</Timestamp><DateUtc dt:dt=""string"">2023-06-30T15:05:24Z</DateUtc></StartTime><FrequencyChanges><FrequencyChange><Frequency dt:dt=""r8"">3312832</Frequency><Timestamp dt:dt=""r8"">73846793664</Timestamp><Current dt:dt=""r8"">0</Current><DateUtc dt:dt=""string"">2023-06-30T15:05:24Z</DateUtc></FrequencyChange></FrequencyChanges></Clock>\n";TMS_Ibrahim-57-2;75.028;1.0.0.561;1;v;832974698;2.0.10.242;2.0.10.242;06-30-2023;30/06/2023 15:05;17:05:24;2.0.10.147;0;;-999999;21;19564;0;1;1842;21406;1;1;1;2;1;2;1;BlockProcFischi;BlockList;1;75;0;;-999999;32;25428;0;1;5156;30584;1;1;1;1;ProcFischi1;ListBlockFischi;43;1;2;0;1;5;Pr3_B;75;1;op;5;2;7;1;43;1;0;TrialProc;337;6000;Pr3_B;163;6000;6000;ListFischi1;0;;3;203;333584;12;15;1587;335171;531;1;1587;1;1515;205;1056;1;1
TMS_Ibrahim;57;2;"<?xml version=""1.0""?>\n<Clock xmlns:dt=""urn:schemas-microsoft-com:datatypes""><Description dt:dt=""string"">E-Prime Primary Realtime Clock</Description><StartTime><Timestamp dt:dt=""int"">0</Timestamp><DateUtc dt:dt=""string"">2023-06-30T15:05:24Z</DateUtc></StartTime><FrequencyChanges><FrequencyChange><Frequency dt:dt=""r8"">3312832</Frequency><Timestamp dt:dt=""r8"">73846793664</Timestamp><Current dt:dt=""r8"">0</Current><DateUtc dt:dt=""string"">2023-06-30T15:05:24Z</DateUtc></FrequencyChange></FrequencyChanges></Clock>\n";TMS_Ibrahim-57-2;75.028;1.0.0.561;1;v;832974698;2.0.10.242;2.0.10.242;06-30-2023;30/06/2023 15:05;17:05:24;2.0.10.147;0;;-999999;21;19564;0;1;1842;21406;1;1;1;2;1;2;1;BlockProcFischi;BlockList;1;75;0;;-999999;32;25428;0;1;5156;30584;1;1;1;1;ProcFischi1;ListBlockFischi;44;1;2;1;0;3;Prmod_B;100;3;ug;3;2;31;1;44;3;1;TrialProc;385;1325;Prmod_B;43;1615;1658;ListFischi1;0;;2;201;340860;13;13;1639;342499;407;1;1639;1;651;470;1232;1;1
TMS_Ibrahim;57;2;"<?xml version=""1.0""?>\n<Clock xmlns:dt=""urn:schemas-microsoft-com:datatypes""><Description dt:dt=""string"">E-Prime Primary Realtime Clock</Description><StartTime><Timestamp dt:dt=""int"">0</Timestamp><DateUtc dt:dt=""string"">2023-06-30T15:05:24Z</DateUtc></StartTime><FrequencyChanges><FrequencyChange><Frequency dt:dt=""r8"">3312832</Frequency><Timestamp dt:dt=""r8"">73846793664</Timestamp><Current dt:dt=""r8"">0</Current><DateUtc dt:dt=""string"">2023-06-30T15:05:24Z</DateUtc></FrequencyChange></FrequencyChanges></Clock>\n";TMS_Ibrahim-57-2;75.028;1.0.0.561;1;v;832974698;2.0.10.242;2.0.10.242;06-30-2023;30/06/2023 15:05;17:05:24;2.0.10.147;0;;-999999;21;19564;0;1;1842;21406;1;1;1;2;1;2;1;BlockProcFischi;BlockList;1;75;0;;-999999;32;25428;0;1;5156;30584;1;1;1;1;ProcFischi1;ListBlockFischi;45;1;1;0;0;3;Po2_B;150;2;op;3;2;33;1;45;2;0;TrialProc;454;1588;Po2_B;204;1609;1814;ListFischi1;0;;2;203;348008;9;13;1643;349651;155;1;1643;1;398;484;1488;1;1
TMS_Ibrahim;57;2;"<?xml version=""1.0""?>\n<Clock xmlns:dt=""urn:schemas-microsoft-com:datatypes""><Description dt:dt=""string"">E-Prime Primary Realtime Clock</Description><StartTime><Timestamp dt:dt=""int"">0</Timestamp><DateUtc dt:dt=""string"">2023-06-30T15:05:24Z</DateUtc></StartTime><FrequencyChanges><FrequencyChange><Frequency dt:dt=""r8"">3312832</Frequency><Timestamp dt:dt=""r8"">73846793664</Timestamp><Current dt:dt=""r8"">0</Current><DateUtc dt:dt=""string"">2023-06-30T15:05:24Z</DateUtc></FrequencyChange></FrequencyChanges></Clock>\n";TMS_Ibrahim-57-2;75.028;1.0.0.561;1;v;832974698;2.0.10.242;2.0.10.242;06-30-2023;30/06/2023 15:05;17:05:24;2.0.10.147;0;;-999999;21;19564;0;1;1842;21406;1;1;1;2;1;2;1;BlockProcFischi;BlockList;1;75;0;;-999999;32;25428;0;1;5156;30584;1;1;1;1;ProcFischi1;ListBlockFischi;46;1;1;0;1;5;Po3_B;150;4;ug;5;2;55;1;46;4;1;TrialProc;430;1322;Po3_B;98;1688;1589;ListFischi1;0;;2;201;355392;9;15;1715;357107;355;1;1715;1;555;389;1360;1;1
TMS_Ibrahim;57;2;"<?xml version=""1.0""?>\n<Clock xmlns:dt=""urn:schemas-microsoft-com:datatypes""><Description dt:dt=""string"">E-Prime Primary Realtime Clock</Description><StartTime><Timestamp dt:dt=""int"">0</Timestamp><DateUtc dt:dt=""string"">2023-06-30T15:05:24Z</DateUtc></StartTime><FrequencyChanges><FrequencyChange><Frequency dt:dt=""r8"">3312832</Frequency><Timestamp dt:dt=""r8"">73846793664</Timestamp><Current dt:dt=""r8"">0</Current><DateUtc dt:dt=""string"">2023-06-30T15:05:24Z</DateUtc></FrequencyChange></FrequencyChanges></Clock>\n";TMS_Ibrahim-57-2;75.028;1.0.0.561;1;v;832974698;2.0.10.242;2.0.10.242;06-30-2023;30/06/2023 15:05;17:05:24;2.0.10.147;0;;-999999;21;19564;0;1;1842;21406;1;1;1;2;1;2;1;BlockProcFischi;BlockList;1;75;0;;-999999;32;25428;0;1;5156;30584;1;1;1;1;ProcFischi1;ListBlockFischi;47;1;1;0;0;5;Po4_B;125;4;ug;5;2;56;1;47;4;1;TrialProc;399;1354;Po4_B;233;1494;1728;ListFischi1;0;;2;203;362450;15;15;1521;363971;321;1;1521;1;335;285;1200;1;1
TMS_Ibrahim;57;2;"<?xml version=""1.0""?>\n<Clock xmlns:dt=""urn:schemas-microsoft-com:datatypes""><Description dt:dt=""string"">E-Prime Primary Realtime Clock</Description><StartTime><Timestamp dt:dt=""int"">0</Timestamp><DateUtc dt:dt=""string"">2023-06-30T15:05:24Z</DateUtc></StartTime><FrequencyChanges><FrequencyChange><Frequency dt:dt=""r8"">3312832</Frequency><Timestamp dt:dt=""r8"">73846793664</Timestamp><Current dt:dt=""r8"">0</Current><DateUtc dt:dt=""string"">2023-06-30T15:05:24Z</DateUtc></FrequencyChange></FrequencyChanges></Clock>\n";TMS_Ibrahim-57-2;75.028;1.0.0.561;1;v;832974698;2.0.10.242;2.0.10.242;06-30-2023;30/06/2023 15:05;17:05:24;2.0.10.147;0;;-999999;21;19564;0;1;1842;21406;1;1;1;2;1;2;1;BlockProcFischi;BlockList;1;75;0;;-999999;32;25428;0;1;5156;30584;1;1;1;1;ProcFischi1;ListBlockFischi;48;1;1;0;1;5;Po8_B;125;4;ug;5;2;53;1;48;4;1;TrialProc;483;1257;Po8_B;86;1503;1588;ListFischi1;0;;2;201;369958;11;15;1533;371491;333;1;1533;1;263;541;1200;1;1
TMS_Ibrahim;57;2;"<?xml version=""1.0""?>\n<Clock xmlns:dt=""urn:schemas-microsoft-com:datatypes""><Description dt:dt=""string"">E-Prime Primary Realtime Clock</Description><StartTime><Timestamp dt:dt=""int"">0</Timestamp><DateUtc dt:dt=""string"">2023-06-30T15:05:24Z</DateUtc></StartTime><FrequencyChanges><FrequencyChange><Frequency dt:dt=""r8"">3312832</Frequency><Timestamp dt:dt=""r8"">73846793664</Timestamp><Current dt:dt=""r8"">0</Current><DateUtc dt:dt=""string"">2023-06-30T15:05:24Z</DateUtc></FrequencyChange></FrequencyChanges></Clock>\n";TMS_Ibrahim-57-2;75.028;1.0.0.561;1;v;832974698;2.0.10.242;2.0.10.242;06-30-2023;30/06/2023 15:05;17:05:24;2.0.10.147;0;;-999999;21;19564;0;1;1842;21406;1;1;1;2;1;2;1;BlockProcFischi;BlockList;1;75;0;;-999999;32;25428;0;1;5156;30584;1;1;1;1;ProcFischi1;ListBlockFischi;49;1;2;0;0;3;Pr3_B;75;3;ug;3;2;18;1;49;3;1;TrialProc;411;721;Pr3_B;251;1469;1721;ListFischi1;0;;2;203;377371;8;13;1495;378866;263;1;1495;1;232;316;1232;1;1
TMS_Ibrahim;57;2;"<?xml version=""1.0""?>\n<Clock xmlns:dt=""urn:schemas-microsoft-com:datatypes""><Description dt:dt=""string"">E-Prime Primary Realtime Clock</Description><StartTime><Timestamp dt:dt=""int"">0</Timestamp><DateUtc dt:dt=""string"">2023-06-30T15:05:24Z</DateUtc></StartTime><FrequencyChanges><FrequencyChange><Frequency dt:dt=""r8"">3312832</Frequency><Timestamp dt:dt=""r8"">73846793664</Timestamp><Current dt:dt=""r8"">0</Current><DateUtc dt:dt=""string"">2023-06-30T15:05:24Z</DateUtc></FrequencyChange></FrequencyChanges></Clock>\n";TMS_Ibrahim-57-2;75.028;1.0.0.561;1;v;832974698;2.0.10.242;2.0.10.242;06-30-2023;30/06/2023 15:05;17:05:24;2.0.10.147;0;;-999999;21;19564;0;1;1842;21406;1;1;1;2;1;2;1;BlockProcFischi;BlockList;1;75;0;;-999999;32;25428;0;1;5156;30584;1;1;1;1;ProcFischi1;ListBlockFischi;50;1;1;0;1;3;Po4_B;150;2;op;3;2;35;1;50;2;0;TrialProc;472;1346;Po4_B;267;1453;1721;ListFischi1;0;;2;201;384715;8;13;1479;386194;295;1;1479;1;120;467;1184;1;1
TMS_Ibrahim;57;2;"<?xml version=""1.0""?>\n<Clock xmlns:dt=""urn:schemas-microsoft-com:datatypes""><Description dt:dt=""string"">E-Prime Primary Realtime Clock</Description><StartTime><Timestamp dt:dt=""int"">0</Timestamp><DateUtc dt:dt=""string"">2023-06-30T15:05:24Z</DateUtc></StartTime><FrequencyChanges><FrequencyChange><Frequency dt:dt=""r8"">3312832</Frequency><Timestamp dt:dt=""r8"">73846793664</Timestamp><Current dt:dt=""r8"">0</Current><DateUtc dt:dt=""string"">2023-06-30T15:05:24Z</DateUtc></FrequencyChange></FrequencyChanges></Clock>\n";TMS_Ibrahim-57-2;75.028;1.0.0.561;1;v;832974698;2.0.10.242;2.0.10.242;06-30-2023;30/06/2023 15:05;17:05:24;2.0.10.147;0;;-999999;21;19564;0;1;1842;21406;1;1;1;2;1;2;1;BlockProcFischi;BlockList;1;75;0;;-999999;32;25428;0;1;5156;30584;1;1;1;1;ProcFischi1;ListBlockFischi;51;1;1;1;0;5;Pomod_B;100;4;ug;5;2;64;1;51;4;1;TrialProc;536;1320;Pomod_B;271;1952;1680;ListFischi1;0;;2;203;392045;9;15;1973;394018;389;1;1973;1;329;274;1584;1;1
TMS_Ibrahim;57;2;"<?xml version=""1.0""?>\n<Clock xmlns:dt=""urn:schemas-microsoft-com:datatypes""><Description dt:dt=""string"">E-Prime Primary Realtime Clock</Description><StartTime><Timestamp dt:dt=""int"">0</Timestamp><DateUtc dt:dt=""string"">2023-06-30T15:05:24Z</DateUtc></StartTime><FrequencyChanges><FrequencyChange><Frequency dt:dt=""r8"">3312832</Frequency><Timestamp dt:dt=""r8"">73846793664</Timestamp><Current dt:dt=""r8"">0</Current><DateUtc dt:dt=""string"">2023-06-30T15:05:24Z</DateUtc></FrequencyChange></FrequencyChanges></Clock>\n";TMS_Ibrahim-57-2;75.028;1.0.0.561;1;v;832974698;2.0.10.242;2.0.10.242;06-30-2023;30/06/2023 15:05;17:05:24;2.0.10.147;0;;-999999;21;19564;0;1;1842;21406;1;1;1;2;1;2;1;BlockProcFischi;BlockList;1;75;0;;-999999;32;25428;0;1;5156;30584;1;1;1;1;ProcFischi1;ListBlockFischi;52;1;1;0;1;5;Po3_B;100;4;ug;5;2;50;1;52;4;1;TrialProc;892;1321;Po3_B;13;1602;1588;ListFischi1;0;;2;201;398881;10;155;1889;400770;369;1;1633;1;441;496;1264;1;1
TMS_Ibrahim;57;2;"<?xml version=""1.0""?>\n<Clock xmlns:dt=""urn:schemas-microsoft-com:datatypes""><Description dt:dt=""string"">E-Prime Primary Realtime Clock</Description><StartTime><Timestamp dt:dt=""int"">0</Timestamp><DateUtc dt:dt=""string"">2023-06-30T15:05:24Z</DateUtc></StartTime><FrequencyChanges><FrequencyChange><Frequency dt:dt=""r8"">3312832</Frequency><Timestamp dt:dt=""r8"">73846793664</Timestamp><Current dt:dt=""r8"">0</Current><DateUtc dt:dt=""string"">2023-06-30T15:05:24Z</DateUtc></FrequencyChange></FrequencyChanges></Clock>\n";TMS_Ibrahim-57-2;75.028;1.0.0.561;1;v;832974698;2.0.10.242;2.0.10.242;06-30-2023;30/06/2023 15:05;17:05:24;2.0.10.147;0;;-999999;21;19564;0;1;1842;21406;1;1;1;2;1;2;1;BlockProcFischi;BlockList;1;75;0;;-999999;32;25428;0;1;5156;30584;1;1;1;1;ProcFischi1;ListBlockFischi;53;1;1;0;0;5;Po5_B;75;4;ug;5;2;62;1;53;4;1;TrialProc;436;993;Po5_B;83;1404;1487;ListFischi1;0;;2;203;405673;16;155;1705;407378;345;1;1433;1;841;260;1088;1;1
TMS_Ibrahim;57;2;"<?xml version=""1.0""?>\n<Clock xmlns:dt=""urn:schemas-microsoft-com:datatypes""><Description dt:dt=""string"">E-Prime Primary Realtime Clock</Description><StartTime><Timestamp dt:dt=""int"">0</Timestamp><DateUtc dt:dt=""string"">2023-06-30T15:05:24Z</DateUtc></StartTime><FrequencyChanges><FrequencyChange><Frequency dt:dt=""r8"">3312832</Frequency><Timestamp dt:dt=""r8"">73846793664</Timestamp><Current dt:dt=""r8"">0</Current><DateUtc dt:dt=""string"">2023-06-30T15:05:24Z</DateUtc></FrequencyChange></FrequencyChanges></Clock>\n";TMS_Ibrahim-57-2;75.028;1.0.0.561;1;v;832974698;2.0.10.242;2.0.10.242;06-30-2023;30/06/2023 15:05;17:05:24;2.0.10.147;0;;-999999;21;19564;0;1;1842;21406;1;1;1;2;1;2;1;BlockProcFischi;BlockList;1;75;0;;-999999;32;25428;0;1;5156;30584;1;1;1;1;ProcFischi1;ListBlockFischi;54;1;1;0;2;3;Po2_B;150;2;op;3;2;43;1;54;2;0;TrialProc;504;1592;Po2_B;208;1610;1819;ListFischi1;0;;2;201;412765;14;13;1637;414402;213;1;1637;1;522;331;1424;1;1
TMS_Ibrahim;57;2;"<?xml version=""1.0""?>\n<Clock xmlns:dt=""urn:schemas-microsoft-com:datatypes""><Description dt:dt=""string"">E-Prime Primary Realtime Clock</Description><StartTime><Timestamp dt:dt=""int"">0</Timestamp><DateUtc dt:dt=""string"">2023-06-30T15:05:24Z</DateUtc></StartTime><FrequencyChanges><FrequencyChange><Frequency dt:dt=""r8"">3312832</Frequency><Timestamp dt:dt=""r8"">73846793664</Timestamp><Current dt:dt=""r8"">0</Current><DateUtc dt:dt=""string"">2023-06-30T15:05:24Z</DateUtc></FrequencyChange></FrequencyChanges></Clock>\n";TMS_Ibrahim-57-2;75.028;1.0.0.561;1;v;832974698;2.0.10.242;2.0.10.242;06-30-2023;30/06/2023 15:05;17:05:24;2.0.10.147;0;;-999999;21;19564;0;1;1842;21406;1;1;1;2;1;2;1;BlockProcFischi;BlockList;1;75;0;;-999999;32;25428;0;1;5156;30584;1;1;1;1;ProcFischi1;ListBlockFischi;55;1;2;1;1;3;Prmod_B;75;3;ug;3;2;32;1;55;3;1;TrialProc;1659;1321;Prmod_B;41;1694;1652;ListFischi1;0;;2;203;420062;8;13;1716;421778;211;1;1716;1;494;429;1505;1;1
TMS_Ibrahim;57;2;"<?xml version=""1.0""?>\n<Clock xmlns:dt=""urn:schemas-microsoft-com:datatypes""><Description dt:dt=""string"">E-Prime Primary Realtime Clock</Description><StartTime><Timestamp dt:dt=""int"">0</Timestamp><DateUtc dt:dt=""string"">2023-06-30T15:05:24Z</DateUtc></StartTime><FrequencyChanges><FrequencyChange><Frequency dt:dt=""r8"">3312832</Frequency><Timestamp dt:dt=""r8"">73846793664</Timestamp><Current dt:dt=""r8"">0</Current><DateUtc dt:dt=""string"">2023-06-30T15:05:24Z</DateUtc></FrequencyChange></FrequencyChanges></Clock>\n";TMS_Ibrahim-57-2;75.028;1.0.0.561;1;v;832974698;2.0.10.242;2.0.10.242;06-30-2023;30/06/2023 15:05;17:05:24;2.0.10.147;0;;-999999;21;19564;0;1;1842;21406;1;1;1;2;1;2;1;BlockProcFischi;BlockList;1;75;0;;-999999;32;25428;0;1;5156;30584;1;1;1;1;ProcFischi1;ListBlockFischi;56;1;1;0;0;5;Po4_B;75;4;ug;5;2;61;1;56;4;1;TrialProc;438;1354;Po4_B;211;1517;1727;ListFischi1;0;;3;203;427252;15;15;1549;428801;413;1;1549;1;387;322;1136;1;1
TMS_Ibrahim;57;2;"<?xml version=""1.0""?>\n<Clock xmlns:dt=""urn:schemas-microsoft-com:datatypes""><Description dt:dt=""string"">E-Prime Primary Realtime Clock</Description><StartTime><Timestamp dt:dt=""int"">0</Timestamp><DateUtc dt:dt=""string"">2023-06-30T15:05:24Z</DateUtc></StartTime><FrequencyChanges><FrequencyChange><Frequency dt:dt=""r8"">3312832</Frequency><Timestamp dt:dt=""r8"">73846793664</Timestamp><Current dt:dt=""r8"">0</Current><DateUtc dt:dt=""string"">2023-06-30T15:05:24Z</DateUtc></FrequencyChange></FrequencyChanges></Clock>\n";TMS_Ibrahim-57-2;75.028;1.0.0.561;1;v;832974698;2.0.10.242;2.0.10.242;06-30-2023;30/06/2023 15:05;17:05:24;2.0.10.147;0;;-999999;21;19564;0;1;1842;21406;1;1;1;2;1;2;1;BlockProcFischi;BlockList;1;75;0;;-999999;32;25428;0;1;5156;30584;1;1;1;1;ProcFischi1;ListBlockFischi;57;1;2;0;2;5;Pr5_B;75;1;op;5;2;9;1;57;1;0;TrialProc;507;690;Pr5_B;81;1371;1290;ListFischi1;0;;2;201;434660;18;15;1405;436065;253;1;1405;1;289;485;1152;1;1
TMS_Ibrahim;57;2;"<?xml version=""1.0""?>\n<Clock xmlns:dt=""urn:schemas-microsoft-com:datatypes""><Description dt:dt=""string"">E-Prime Primary Realtime Clock</Description><StartTime><Timestamp dt:dt=""int"">0</Timestamp><DateUtc dt:dt=""string"">2023-06-30T15:05:24Z</DateUtc></StartTime><FrequencyChanges><FrequencyChange><Frequency dt:dt=""r8"">3312832</Frequency><Timestamp dt:dt=""r8"">73846793664</Timestamp><Current dt:dt=""r8"">0</Current><DateUtc dt:dt=""string"">2023-06-30T15:05:24Z</DateUtc></FrequencyChange></FrequencyChanges></Clock>\n";TMS_Ibrahim-57-2;75.028;1.0.0.561;1;v;832974698;2.0.10.242;2.0.10.242;06-30-2023;30/06/2023 15:05;17:05:24;2.0.10.147;0;;-999999;21;19564;0;1;1842;21406;1;1;1;2;1;2;1;BlockProcFischi;BlockList;1;75;0;;-999999;32;25428;0;1;5156;30584;1;1;1;1;ProcFischi1;ListBlockFischi;58;1;1;0;0;3;Po8_B;175;2;op;3;2;42;1;58;2;0;TrialProc;474;1257;Po8_B;115;1475;1590;ListFischi1;0;;2;203;441865;10;13;1496;443361;392;1;1496;1;338;347;1104;1;1
TMS_Ibrahim;57;2;"<?xml version=""1.0""?>\n<Clock xmlns:dt=""urn:schemas-microsoft-com:datatypes""><Description dt:dt=""string"">E-Prime Primary Realtime Clock</Description><StartTime><Timestamp dt:dt=""int"">0</Timestamp><DateUtc dt:dt=""string"">2023-06-30T15:05:24Z</DateUtc></StartTime><FrequencyChanges><FrequencyChange><Frequency dt:dt=""r8"">3312832</Frequency><Timestamp dt:dt=""r8"">73846793664</Timestamp><Current dt:dt=""r8"">0</Current><DateUtc dt:dt=""string"">2023-06-30T15:05:24Z</DateUtc></FrequencyChange></FrequencyChanges></Clock>\n";TMS_Ibrahim-57-2;75.028;1.0.0.561;1;v;832974698;2.0.10.242;2.0.10.242;06-30-2023;30/06/2023 15:05;17:05:24;2.0.10.147;0;;-999999;21;19564;0;1;1842;21406;1;1;1;2;1;2;1;BlockProcFischi;BlockList;1;75;0;;-999999;32;25428;0;1;5156;30584;1;1;1;1;ProcFischi1;ListBlockFischi;59;1;2;0;0;3;Pr2_B;50;3;ug;3;2;17;1;59;3;1;TrialProc;443;722;Pr2_B;233;1487;1255;ListFischi1;0;;2;201;449224;8;133;1961;451185;313;1;1513;1;683;229;1200;1;1
TMS_Ibrahim;57;2;"<?xml version=""1.0""?>\n<Clock xmlns:dt=""urn:schemas-microsoft-com:datatypes""><Description dt:dt=""string"">E-Prime Primary Realtime Clock</Description><StartTime><Timestamp dt:dt=""int"">0</Timestamp><DateUtc dt:dt=""string"">2023-06-30T15:05:24Z</DateUtc></StartTime><FrequencyChanges><FrequencyChange><Frequency dt:dt=""r8"">3312832</Frequency><Timestamp dt:dt=""r8"">73846793664</Timestamp><Current dt:dt=""r8"">0</Current><DateUtc dt:dt=""string"">2023-06-30T15:05:24Z</DateUtc></FrequencyChange></FrequencyChanges></Clock>\n";TMS_Ibrahim-57-2;75.028;1.0.0.561;1;v;832974698;2.0.10.242;2.0.10.242;06-30-2023;30/06/2023 15:05;17:05:24;2.0.10.147;0;;-999999;21;19564;0;1;1842;21406;1;1;1;2;1;2;1;BlockProcFischi;BlockList;1;75;0;;-999999;32;25428;0;1;5156;30584;1;1;1;1;ProcFischi1;ListBlockFischi;60;1;2;0;2;5;Pr5_B;75;1;op;5;2;14;1;60;1;0;TrialProc;392;681;Pr5_B;97;1376;1280;ListFischi1;0;;3;203;455808;8;15;1409;457217;257;1;1409;1;592;461;1152;1;1
TMS_Ibrahim;57;2;"<?xml version=""1.0""?>\n<Clock xmlns:dt=""urn:schemas-microsoft-com:datatypes""><Description dt:dt=""string"">E-Prime Primary Realtime Clock</Description><StartTime><Timestamp dt:dt=""int"">0</Timestamp><DateUtc dt:dt=""string"">2023-06-30T15:05:24Z</DateUtc></StartTime><FrequencyChanges><FrequencyChange><Frequency dt:dt=""r8"">3312832</Frequency><Timestamp dt:dt=""r8"">73846793664</Timestamp><Current dt:dt=""r8"">0</Current><DateUtc dt:dt=""string"">2023-06-30T15:05:24Z</DateUtc></FrequencyChange></FrequencyChanges></Clock>\n";TMS_Ibrahim-57-2;75.028;1.0.0.561;1;v;832974698;2.0.10.242;2.0.10.242;06-30-2023;30/06/2023 15:05;17:05:24;2.0.10.147;0;;-999999;21;19564;0;1;1842;21406;1;1;1;2;1;2;1;BlockProcFischi;BlockList;1;75;0;;-999999;32;25428;0;1;5156;30584;1;1;1;1;ProcFischi1;ListBlockFischi;61;1;2;0;1;3;Pr4_B;50;3;ug;3;2;19;1;61;3;1;TrialProc;513;684;Pr4_B;31;1226;1257;ListFischi1;0;;2;201;462976;11;13;1249;464225;33;1;1249;1;512;380;1216;1;1
TMS_Ibrahim;57;2;"<?xml version=""1.0""?>\n<Clock xmlns:dt=""urn:schemas-microsoft-com:datatypes""><Description dt:dt=""string"">E-Prime Primary Realtime Clock</Description><StartTime><Timestamp dt:dt=""int"">0</Timestamp><DateUtc dt:dt=""string"">2023-06-30T15:05:24Z</DateUtc></StartTime><FrequencyChanges><FrequencyChange><Frequency dt:dt=""r8"">3312832</Frequency><Timestamp dt:dt=""r8"">73846793664</Timestamp><Current dt:dt=""r8"">0</Current><DateUtc dt:dt=""string"">2023-06-30T15:05:24Z</DateUtc></FrequencyChange></FrequencyChanges></Clock>\n";TMS_Ibrahim-57-2;75.028;1.0.0.561;1;v;832974698;2.0.10.242;2.0.10.242;06-30-2023;30/06/2023 15:05;17:05:24;2.0.10.147;0;;-999999;21;19564;0;1;1842;21406;1;1;1;2;1;2;1;BlockProcFischi;BlockList;1;75;0;;-999999;32;25428;0;1;5156;30584;1;1;1;1;ProcFischi1;ListBlockFischi;62;1;1;0;1;5;Po2_B;75;4;ug;5;2;49;1;62;4;1;TrialProc;698;1588;Po2_B;206;1606;1813;ListFischi1;0;;2;203;470256;8;15;1633;471889;369;1;1633;1;360;404;1264;1;1
TMS_Ibrahim;57;2;"<?xml version=""1.0""?>\n<Clock xmlns:dt=""urn:schemas-microsoft-com:datatypes""><Description dt:dt=""string"">E-Prime Primary Realtime Clock</Description><StartTime><Timestamp dt:dt=""int"">0</Timestamp><DateUtc dt:dt=""string"">2023-06-30T15:05:24Z</DateUtc></StartTime><FrequencyChanges><FrequencyChange><Frequency dt:dt=""r8"">3312832</Frequency><Timestamp dt:dt=""r8"">73846793664</Timestamp><Current dt:dt=""r8"">0</Current><DateUtc dt:dt=""string"">2023-06-30T15:05:24Z</DateUtc></FrequencyChange></FrequencyChanges></Clock>\n";TMS_Ibrahim-57-2;75.028;1.0.0.561;1;v;832974698;2.0.10.242;2.0.10.242;06-30-2023;30/06/2023 15:05;17:05:24;2.0.10.147;0;;-999999;21;19564;0;1;1842;21406;1;1;1;2;1;2;1;BlockProcFischi;BlockList;1;75;0;;-999999;32;25428;0;1;5156;30584;1;1;1;1;ProcFischi1;ListBlockFischi;63;1;2;0;1;3;Pr2_B;50;3;ug;3;2;22;1;63;3;1;TrialProc;418;722;Pr2_B;44;1210;1255;ListFischi1;0;;3;201;477477;11;13;1243;478720;331;1;1243;1;253;279;912;1;1
TMS_Ibrahim;57;2;"<?xml version=""1.0""?>\n<Clock xmlns:dt=""urn:schemas-microsoft-com:datatypes""><Description dt:dt=""string"">E-Prime Primary Realtime Clock</Description><StartTime><Timestamp dt:dt=""int"">0</Timestamp><DateUtc dt:dt=""string"">2023-06-30T15:05:24Z</DateUtc></StartTime><FrequencyChanges><FrequencyChange><Frequency dt:dt=""r8"">3312832</Frequency><Timestamp dt:dt=""r8"">73846793664</Timestamp><Current dt:dt=""r8"">0</Current><DateUtc dt:dt=""string"">2023-06-30T15:05:24Z</DateUtc></FrequencyChange></FrequencyChanges></Clock>\n";TMS_Ibrahim-57-2;75.028;1.0.0.561;1;v;832974698;2.0.10.242;2.0.10.242;06-30-2023;30/06/2023 15:05;17:05:24;2.0.10.147;0;;-999999;21;19564;0;1;1842;21406;1;1;1;2;1;2;1;BlockProcFischi;BlockList;1;75;0;;-999999;32;25428;0;1;5156;30584;1;1;1;1;ProcFischi1;ListBlockFischi;64;1;2;0;1;3;Pr2_B;50;3;ug;3;2;27;1;64;3;1;TrialProc;427;732;Pr2_B;18;1283;1264;ListFischi1;0;;2;203;484627;18;13;1309;485936;301;1;1309;1;344;213;1008;1;1
TMS_Ibrahim;57;4;"<?xml version=""1.0""?>\n<Clock xmlns:dt=""urn:schemas-microsoft-com:datatypes""><Description dt:dt=""string"">E-Prime Primary Realtime Clock</Description><StartTime><Timestamp dt:dt=""int"">0</Timestamp><DateUtc dt:dt=""string"">2023-06-30T16:04:32Z</DateUtc></StartTime><FrequencyChanges><FrequencyChange><Frequency dt:dt=""r8"">3312832</Frequency><Timestamp dt:dt=""r8"">85600099014</Timestamp><Current dt:dt=""r8"">0</Current><DateUtc dt:dt=""string"">2023-06-30T16:04:32Z</DateUtc></FrequencyChange></FrequencyChanges></Clock>\n";TMS_Ibrahim-57-4;75.028;1.0.0.561;1;;-298824479;2.0.10.242;2.0.10.242;06-30-2023;30/06/2023 16:04;18:04:32;2.0.10.147;0;;-999999;21;16986;0;1;885;17871;1;1;1;2;1;1;1;BlockProcFischi;BlockList;1;25;0;;-999999;13;19373;0;1;722;20095;1;1;1;1;ProcFischi1;ListBlockFischi;1;1;2;0;0;3;Pr3_B;250;3;ug;3;2;23;1;1;3;1;TrialProc;2209;731;Pr3_B;61;1670;1731;ListFischi1;0;;3;203;22673;20;13;1708;24381;428;1;1708;1;751;292;1280;1;1
TMS_Ibrahim;57;4;"<?xml version=""1.0""?>\n<Clock xmlns:dt=""urn:schemas-microsoft-com:datatypes""><Description dt:dt=""string"">E-Prime Primary Realtime Clock</Description><StartTime><Timestamp dt:dt=""int"">0</Timestamp><DateUtc dt:dt=""string"">2023-06-30T16:04:32Z</DateUtc></StartTime><FrequencyChanges><FrequencyChange><Frequency dt:dt=""r8"">3312832</Frequency><Timestamp dt:dt=""r8"">85600099014</Timestamp><Current dt:dt=""r8"">0</Current><DateUtc dt:dt=""string"">2023-06-30T16:04:32Z</DateUtc></FrequencyChange></FrequencyChanges></Clock>\n";TMS_Ibrahim-57-4;75.028;1.0.0.561;1;;-298824479;2.0.10.242;2.0.10.242;06-30-2023;30/06/2023 16:04;18:04:32;2.0.10.147;0;;-999999;21;16986;0;1;885;17871;1;1;1;2;1;1;1;BlockProcFischi;BlockList;1;25;0;;-999999;13;19373;0;1;722;20095;1;1;1;1;ProcFischi1;ListBlockFischi;2;0;1;1;0;5;Pomod_B;;4;ug;3;2;63;1;2;4;1;TrialProc;1883;1326;Pomod_B;171;1515;1686;ListFischi1;0;;1;204;30491;13;13;1538;32029;386;1;1538;1;1317;498;1152;1;0
TMS_Ibrahim;57;4;"<?xml version=""1.0""?>\n<Clock xmlns:dt=""urn:schemas-microsoft-com:datatypes""><Description dt:dt=""string"">E-Prime Primary Realtime Clock</Description><StartTime><Timestamp dt:dt=""int"">0</Timestamp><DateUtc dt:dt=""string"">2023-06-30T16:04:32Z</DateUtc></StartTime><FrequencyChanges><FrequencyChange><Frequency dt:dt=""r8"">3312832</Frequency><Timestamp dt:dt=""r8"">85600099014</Timestamp><Current dt:dt=""r8"">0</Current><DateUtc dt:dt=""string"">2023-06-30T16:04:32Z</DateUtc></FrequencyChange></FrequencyChanges></Clock>\n";TMS_Ibrahim-57-4;75.028;1.0.0.561;1;;-298824479;2.0.10.242;2.0.10.242;06-30-2023;30/06/2023 16:04;18:04:32;2.0.10.147;0;;-999999;21;16986;0;1;885;17871;1;1;1;2;1;1;1;BlockProcFischi;BlockList;1;25;0;;-999999;13;19373;0;1;722;20095;1;1;1;1;ProcFischi1;ListBlockFischi;3;1;2;0;0;3;Pr4_B;225;3;ug;3;2;29;1;3;3;1;TrialProc;2598;683;Pr4_B;19;1274;1256;ListFischi1;0;;2;203;38503;11;13;1301;39804;405;1;1301;1;717;238;896;1;1
TMS_Ibrahim;57;4;"<?xml version=""1.0""?>\n<Clock xmlns:dt=""urn:schemas-microsoft-com:datatypes""><Description dt:dt=""string"">E-Prime Primary Realtime Clock</Description><StartTime><Timestamp dt:dt=""int"">0</Timestamp><DateUtc dt:dt=""string"">2023-06-30T16:04:32Z</DateUtc></StartTime><FrequencyChanges><FrequencyChange><Frequency dt:dt=""r8"">3312832</Frequency><Timestamp dt:dt=""r8"">85600099014</Timestamp><Current dt:dt=""r8"">0</Current><DateUtc dt:dt=""string"">2023-06-30T16:04:32Z</DateUtc></FrequencyChange></FrequencyChanges></Clock>\n";TMS_Ibrahim-57-4;75.028;1.0.0.561;1;;-298824479;2.0.10.242;2.0.10.242;06-30-2023;30/06/2023 16:04;18:04:32;2.0.10.147;0;;-999999;21;16986;0;1;885;17871;1;1;1;2;1;1;1;BlockProcFischi;BlockList;1;25;0;;-999999;13;19373;0;1;722;20095;1;1;1;1;ProcFischi1;ListBlockFischi;4;1;2;0;0;3;Pr5_B;200;3;ug;3;2;25;1;4;3;1;TrialProc;2555;683;Pr5_B;195;1479;1283;ListFischi1;0;;2;203;46581;10;13;1511;48092;343;1;1511;1;772;333;1168;1;1
TMS_Ibrahim;57;4;"<?xml version=""1.0""?>\n<Clock xmlns:dt=""urn:schemas-microsoft-com:datatypes""><Description dt:dt=""string"">E-Prime Primary Realtime Clock</Description><StartTime><Timestamp dt:dt=""int"">0</Timestamp><DateUtc dt:dt=""string"">2023-06-30T16:04:32Z</DateUtc></StartTime><FrequencyChanges><FrequencyChange><Frequency dt:dt=""r8"">3312832</Frequency><Timestamp dt:dt=""r8"">85600099014</Timestamp><Current dt:dt=""r8"">0</Current><DateUtc dt:dt=""string"">2023-06-30T16:04:32Z</DateUtc></FrequencyChange></FrequencyChanges></Clock>\n";TMS_Ibrahim-57-4;75.028;1.0.0.561;1;;-298824479;2.0.10.242;2.0.10.242;06-30-2023;30/06/2023 16:04;18:04:32;2.0.10.147;0;;-999999;21;16986;0;1;885;17871;1;1;1;2;1;1;1;BlockProcFischi;BlockList;1;25;0;;-999999;13;19373;0;1;722;20095;1;1;1;1;ProcFischi1;ListBlockFischi;5;1;1;0;0;3;Po5_B;250;2;op;3;2;41;1;5;2;0;TrialProc;2267;992;Po5_B;30;1455;1486;ListFischi1;0;;2;203;55534;14;13;1486;57020;398;1;1486;1;1101;424;1088;1;1
TMS_Ibrahim;57;4;"<?xml version=""1.0""?>\n<Clock xmlns:dt=""urn:schemas-microsoft-com:datatypes""><Description dt:dt=""string"">E-Prime Primary Realtime Clock</Description><StartTime><Timestamp dt:dt=""int"">0</Timestamp><DateUtc dt:dt=""string"">2023-06-30T16:04:32Z</DateUtc></StartTime><FrequencyChanges><FrequencyChange><Frequency dt:dt=""r8"">3312832</Frequency><Timestamp dt:dt=""r8"">85600099014</Timestamp><Current dt:dt=""r8"">0</Current><DateUtc dt:dt=""string"">2023-06-30T16:04:32Z</DateUtc></FrequencyChange></FrequencyChanges></Clock>\n";TMS_Ibrahim-57-4;75.028;1.0.0.561;1;;-298824479;2.0.10.242;2.0.10.242;06-30-2023;30/06/2023 16:04;18:04:32;2.0.10.147;0;;-999999;21;16986;0;1;885;17871;1;1;1;2;1;1;1;BlockProcFischi;BlockList;1;25;0;;-999999;13;19373;0;1;722;20095;1;1;1;1;ProcFischi1;ListBlockFischi;6;1;2;0;0;3;Pr3_B;200;3;ug;3;2;28;1;6;3;1;TrialProc;2613;727;Pr3_B;29;1699;1728;ListFischi1;0;;2;203;63476;15;13;1720;65196;440;1;1720;1;579;335;1280;1;1
TMS_Ibrahim;57;4;"<?xml version=""1.0""?>\n<Clock xmlns:dt=""urn:schemas-microsoft-com:datatypes""><Description dt:dt=""string"">E-Prime Primary Realtime Clock</Description><StartTime><Timestamp dt:dt=""int"">0</Timestamp><DateUtc dt:dt=""string"">2023-06-30T16:04:32Z</DateUtc></StartTime><FrequencyChanges><FrequencyChange><Frequency dt:dt=""r8"">3312832</Frequency><Timestamp dt:dt=""r8"">85600099014</Timestamp><Current dt:dt=""r8"">0</Current><DateUtc dt:dt=""string"">2023-06-30T16:04:32Z</DateUtc></FrequencyChange></FrequencyChanges></Clock>\n";TMS_Ibrahim-57-4;75.028;1.0.0.561;1;;-298824479;2.0.10.242;2.0.10.242;06-30-2023;30/06/2023 16:04;18:04:32;2.0.10.147;0;;-999999;21;16986;0;1;885;17871;1;1;1;2;1;1;1;BlockProcFischi;BlockList;1;25;0;;-999999;13;19373;0;1;722;20095;1;1;1;1;ProcFischi1;ListBlockFischi;7;1;1;0;0;5;Po2_B;250;4;ug;5;2;54;1;7;4;1;TrialProc;2637;1597;Po2_B;30;1795;1824;ListFischi1;0;;2;203;71857;18;155;2555;74412;523;1;1819;1;594;523;1296;1;1
TMS_Ibrahim;57;4;"<?xml version=""1.0""?>\n<Clock xmlns:dt=""urn:schemas-microsoft-com:datatypes""><Description dt:dt=""string"">E-Prime Primary Realtime Clock</Description><StartTime><Timestamp dt:dt=""int"">0</Timestamp><DateUtc dt:dt=""string"">2023-06-30T16:04:32Z</DateUtc></StartTime><FrequencyChanges><FrequencyChange><Frequency dt:dt=""r8"">3312832</Frequency><Timestamp dt:dt=""r8"">85600099014</Timestamp><Current dt:dt=""r8"">0</Current><DateUtc dt:dt=""string"">2023-06-30T16:04:32Z</DateUtc></FrequencyChange></FrequencyChanges></Clock>\n";TMS_Ibrahim-57-4;75.028;1.0.0.561;1;;-298824479;2.0.10.242;2.0.10.242;06-30-2023;30/06/2023 16:04;18:04:32;2.0.10.147;0;;-999999;21;16986;0;1;885;17871;1;1;1;2;1;1;1;BlockProcFischi;BlockList;1;25;0;;-999999;13;19373;0;1;722;20095;1;1;1;1;ProcFischi1;ListBlockFischi;8;1;1;0;0;5;Po2_B;225;4;ug;5;2;49;1;8;4;1;TrialProc;1756;1593;Po2_B;97;1724;1820;ListFischi1;0;;2;201;79045;14;15;1751;80796;519;1;1751;1;964;498;1232;1;1
TMS_Ibrahim;57;4;"<?xml version=""1.0""?>\n<Clock xmlns:dt=""urn:schemas-microsoft-com:datatypes""><Description dt:dt=""string"">E-Prime Primary Realtime Clock</Description><StartTime><Timestamp dt:dt=""int"">0</Timestamp><DateUtc dt:dt=""string"">2023-06-30T16:04:32Z</DateUtc></StartTime><FrequencyChanges><FrequencyChange><Frequency dt:dt=""r8"">3312832</Frequency><Timestamp dt:dt=""r8"">85600099014</Timestamp><Current dt:dt=""r8"">0</Current><DateUtc dt:dt=""string"">2023-06-30T16:04:32Z</DateUtc></FrequencyChange></FrequencyChanges></Clock>\n";TMS_Ibrahim-57-4;75.028;1.0.0.561;1;;-298824479;2.0.10.242;2.0.10.242;06-30-2023;30/06/2023 16:04;18:04:32;2.0.10.147;0;;-999999;21;16986;0;1;885;17871;1;1;1;2;1;1;1;BlockProcFischi;BlockList;1;25;0;;-999999;13;19373;0;1;722;20095;1;1;1;1;ProcFischi1;ListBlockFischi;9;1;1;0;0;3;Po2_B;225;2;op;3;2;43;1;9;2;0;TrialProc;2325;1594;Po2_B;173;1648;1822;ListFischi1;0;;2;203;87640;15;13;1667;89307;467;1;1667;1;1197;388;1200;1;1
TMS_Ibrahim;57;4;"<?xml version=""1.0""?>\n<Clock xmlns:dt=""urn:schemas-microsoft-com:datatypes""><Description dt:dt=""string"">E-Prime Primary Realtime Clock</Description><StartTime><Timestamp dt:dt=""int"">0</Timestamp><DateUtc dt:dt=""string"">2023-06-30T16:04:32Z</DateUtc></StartTime><FrequencyChanges><FrequencyChange><Frequency dt:dt=""r8"">3312832</Frequency><Timestamp dt:dt=""r8"">85600099014</Timestamp><Current dt:dt=""r8"">0</Current><DateUtc dt:dt=""string"">2023-06-30T16:04:32Z</DateUtc></FrequencyChange></FrequencyChanges></Clock>\n";TMS_Ibrahim-57-4;75.028;1.0.0.561;1;;-298824479;2.0.10.242;2.0.10.242;06-30-2023;30/06/2023 16:04;18:04:32;2.0.10.147;0;;-999999;21;16986;0;1;885;17871;1;1;1;2;1;1;1;BlockProcFischi;BlockList;1;25;0;;-999999;13;19373;0;1;722;20095;1;1;1;1;ProcFischi1;ListBlockFischi;10;1;1;0;0;5;Po3_B;200;4;ug;5;2;60;1;10;4;1;TrialProc;3365;1323;Po3_B;69;1520;1589;ListFischi1;0;;2;203;96376;9;15;1555;97931;531;1;1555;1;761;568;1024;1;1
TMS_Ibrahim;57;4;"<?xml version=""1.0""?>\n<Clock xmlns:dt=""urn:schemas-microsoft-com:datatypes""><Description dt:dt=""string"">E-Prime Primary Realtime Clock</Description><StartTime><Timestamp dt:dt=""int"">0</Timestamp><DateUtc dt:dt=""string"">2023-06-30T16:04:32Z</DateUtc></StartTime><FrequencyChanges><FrequencyChange><Frequency dt:dt=""r8"">3312832</Frequency><Timestamp dt:dt=""r8"">85600099014</Timestamp><Current dt:dt=""r8"">0</Current><DateUtc dt:dt=""string"">2023-06-30T16:04:32Z</DateUtc></FrequencyChange></FrequencyChanges></Clock>\n";TMS_Ibrahim-57-4;75.028;1.0.0.561;1;;-298824479;2.0.10.242;2.0.10.242;06-30-2023;30/06/2023 16:04;18:04:32;2.0.10.147;0;;-999999;21;16986;0;1;885;17871;1;1;1;2;1;1;1;BlockProcFischi;BlockList;1;25;0;;-999999;13;19373;0;1;722;20095;1;1;1;1;ProcFischi1;ListBlockFischi;11;1;1;0;0;5;Po8_B;175;4;ug;5;2;58;1;11;4;1;TrialProc;2532;1259;Po8_B;88;1681;1593;ListFischi1;0;;2;203;104580;16;15;1703;106283;391;1;1703;1;654;424;1312;1;1
TMS_Ibrahim;57;4;"<?xml version=""1.0""?>\n<Clock xmlns:dt=""urn:schemas-microsoft-com:datatypes""><Description dt:dt=""string"">E-Prime Primary Realtime Clock</Description><StartTime><Timestamp dt:dt=""int"">0</Timestamp><DateUtc dt:dt=""string"">2023-06-30T16:04:32Z</DateUtc></StartTime><FrequencyChanges><FrequencyChange><Frequency dt:dt=""r8"">3312832</Frequency><Timestamp dt:dt=""r8"">85600099014</Timestamp><Current dt:dt=""r8"">0</Current><DateUtc dt:dt=""string"">2023-06-30T16:04:32Z</DateUtc></FrequencyChange></FrequencyChanges></Clock>\n";TMS_Ibrahim-57-4;75.028;1.0.0.561;1;;-298824479;2.0.10.242;2.0.10.242;06-30-2023;30/06/2023 16:04;18:04:32;2.0.10.147;0;;-999999;21;16986;0;1;885;17871;1;1;1;2;1;1;1;BlockProcFischi;BlockList;1;25;0;;-999999;13;19373;0;1;722;20095;1;1;1;1;ProcFischi1;ListBlockFischi;12;1;1;0;0;3;Po4_B;200;2;op;3;2;35;1;12;2;0;TrialProc;2312;1349;Po4_B;175;1547;1722;ListFischi1;0;;2;203;113770;9;1333;3041;116811;449;1;1569;1;947;335;1120;1;1
TMS_Ibrahim;57;4;"<?xml version=""1.0""?>\n<Clock xmlns:dt=""urn:schemas-microsoft-com:datatypes""><Description dt:dt=""string"">E-Prime Primary Realtime Clock</Description><StartTime><Timestamp dt:dt=""int"">0</Timestamp><DateUtc dt:dt=""string"">2023-06-30T16:04:32Z</DateUtc></StartTime><FrequencyChanges><FrequencyChange><Frequency dt:dt=""r8"">3312832</Frequency><Timestamp dt:dt=""r8"">85600099014</Timestamp><Current dt:dt=""r8"">0</Current><DateUtc dt:dt=""string"">2023-06-30T16:04:32Z</DateUtc></FrequencyChange></FrequencyChanges></Clock>\n";TMS_Ibrahim-57-4;75.028;1.0.0.561;1;;-298824479;2.0.10.242;2.0.10.242;06-30-2023;30/06/2023 16:04;18:04:32;2.0.10.147;0;;-999999;21;16986;0;1;885;17871;1;1;1;2;1;1;1;BlockProcFischi;BlockList;1;25;0;;-999999;13;19373;0;1;722;20095;1;1;1;1;ProcFischi1;ListBlockFischi;13;1;2;0;0;5;Pr4_B;250;1;op;5;2;13;1;13;1;0;TrialProc;3142;683;Pr4_B;145;1400;1255;ListFischi1;0;;2;203;121846;10;15;1429;123275;455;1;1429;1;752;238;974;1;1
TMS_Ibrahim;57;4;"<?xml version=""1.0""?>\n<Clock xmlns:dt=""urn:schemas-microsoft-com:datatypes""><Description dt:dt=""string"">E-Prime Primary Realtime Clock</Description><StartTime><Timestamp dt:dt=""int"">0</Timestamp><DateUtc dt:dt=""string"">2023-06-30T16:04:32Z</DateUtc></StartTime><FrequencyChanges><FrequencyChange><Frequency dt:dt=""r8"">3312832</Frequency><Timestamp dt:dt=""r8"">85600099014</Timestamp><Current dt:dt=""r8"">0</Current><DateUtc dt:dt=""string"">2023-06-30T16:04:32Z</DateUtc></FrequencyChange></FrequencyChanges></Clock>\n";TMS_Ibrahim-57-4;75.028;1.0.0.561;1;;-298824479;2.0.10.242;2.0.10.242;06-30-2023;30/06/2023 16:04;18:04:32;2.0.10.147;0;;-999999;21;16986;0;1;885;17871;1;1;1;2;1;1;1;BlockProcFischi;BlockList;1;25;0;;-999999;13;19373;0;1;722;20095;1;1;1;1;ProcFischi1;ListBlockFischi;14;1;2;1;0;3;Prmod_B;175;3;ug;3;2;31;1;14;3;1;TrialProc;2165;1326;Prmod_B;55;1604;1659;ListFischi1;0;;2;203;130133;13;13;1637;131770;390;1;1637;1;769;316;1247;1;1
TMS_Ibrahim;57;4;"<?xml version=""1.0""?>\n<Clock xmlns:dt=""urn:schemas-microsoft-com:datatypes""><Description dt:dt=""string"">E-Prime Primary Realtime Clock</Description><StartTime><Timestamp dt:dt=""int"">0</Timestamp><DateUtc dt:dt=""string"">2023-06-30T16:04:32Z</DateUtc></StartTime><FrequencyChanges><FrequencyChange><Frequency dt:dt=""r8"">3312832</Frequency><Timestamp dt:dt=""r8"">85600099014</Timestamp><Current dt:dt=""r8"">0</Current><DateUtc dt:dt=""string"">2023-06-30T16:04:32Z</DateUtc></FrequencyChange></FrequencyChanges></Clock>\n";TMS_Ibrahim-57-4;75.028;1.0.0.561;1;;-298824479;2.0.10.242;2.0.10.242;06-30-2023;30/06/2023 16:04;18:04:32;2.0.10.147;0;;-999999;21;16986;0;1;885;17871;1;1;1;2;1;1;1;BlockProcFischi;BlockList;1;25;0;;-999999;13;19373;0;1;722;20095;1;1;1;1;ProcFischi1;ListBlockFischi;15;1;2;0;0;5;Pr4_B;225;1;op;5;2;3;1;15;1;0;TrialProc;2742;685;Pr4_B;31;1288;1258;ListFischi1;0;;2;203;138263;13;15;1315;139578;387;1;1315;1;1126;313;928;1;1
TMS_Ibrahim;57;4;"<?xml version=""1.0""?>\n<Clock xmlns:dt=""urn:schemas-microsoft-com:datatypes""><Description dt:dt=""string"">E-Prime Primary Realtime Clock</Description><StartTime><Timestamp dt:dt=""int"">0</Timestamp><DateUtc dt:dt=""string"">2023-06-30T16:04:32Z</DateUtc></StartTime><FrequencyChanges><FrequencyChange><Frequency dt:dt=""r8"">3312832</Frequency><Timestamp dt:dt=""r8"">85600099014</Timestamp><Current dt:dt=""r8"">0</Current><DateUtc dt:dt=""string"">2023-06-30T16:04:32Z</DateUtc></FrequencyChange></FrequencyChanges></Clock>\n";TMS_Ibrahim-57-4;75.028;1.0.0.561;1;;-298824479;2.0.10.242;2.0.10.242;06-30-2023;30/06/2023 16:04;18:04:32;2.0.10.147;0;;-999999;21;16986;0;1;885;17871;1;1;1;2;1;1;1;BlockProcFischi;BlockList;1;25;0;;-999999;13;19373;0;1;722;20095;1;1;1;1;ProcFischi1;ListBlockFischi;16;1;1;0;0;3;Po2_B;200;2;op;3;2;33;1;16;2;0;TrialProc;2080;1591;Po2_B;283;1534;1817;ListFischi1;0;;2;203;146355;12;133;2951;149306;231;1;1559;1;902;561;1328;1;1
TMS_Ibrahim;57;4;"<?xml version=""1.0""?>\n<Clock xmlns:dt=""urn:schemas-microsoft-com:datatypes""><Description dt:dt=""string"">E-Prime Primary Realtime Clock</Description><StartTime><Timestamp dt:dt=""int"">0</Timestamp><DateUtc dt:dt=""string"">2023-06-30T16:04:32Z</DateUtc></StartTime><FrequencyChanges><FrequencyChange><Frequency dt:dt=""r8"">3312832</Frequency><Timestamp dt:dt=""r8"">85600099014</Timestamp><Current dt:dt=""r8"">0</Current><DateUtc dt:dt=""string"">2023-06-30T16:04:32Z</DateUtc></FrequencyChange></FrequencyChanges></Clock>\n";TMS_Ibrahim-57-4;75.028;1.0.0.561;1;;-298824479;2.0.10.242;2.0.10.242;06-30-2023;30/06/2023 16:04;18:04:32;2.0.10.147;0;;-999999;21;16986;0;1;885;17871;1;1;1;2;1;1;1;BlockProcFischi;BlockList;1;25;0;;-999999;13;19373;0;1;722;20095;1;1;1;1;ProcFischi1;ListBlockFischi;17;1;2;0;0;5;Pr2_B;200;1;op;5;2;1;1;17;1;0;TrialProc;1651;723;Pr2_B;163;1420;1257;ListFischi1;0;;2;203;155886;10;15;1452;157338;348;1;1452;1;1146;354;1104;1;1
TMS_Ibrahim;57;4;"<?xml version=""1.0""?>\n<Clock xmlns:dt=""urn:schemas-microsoft-com:datatypes""><Description dt:dt=""string"">E-Prime Primary Realtime Clock</Description><StartTime><Timestamp dt:dt=""int"">0</Timestamp><DateUtc dt:dt=""string"">2023-06-30T16:04:32Z</DateUtc></StartTime><FrequencyChanges><FrequencyChange><Frequency dt:dt=""r8"">3312832</Frequency><Timestamp dt:dt=""r8"">85600099014</Timestamp><Current dt:dt=""r8"">0</Current><DateUtc dt:dt=""string"">2023-06-30T16:04:32Z</DateUtc></FrequencyChange></FrequencyChanges></Clock>\n";TMS_Ibrahim-57-4;75.028;1.0.0.561;1;;-298824479;2.0.10.242;2.0.10.242;06-30-2023;30/06/2023 16:04;18:04:32;2.0.10.147;0;;-999999;21;16986;0;1;885;17871;1;1;1;2;1;1;1;BlockProcFischi;BlockList;1;25;0;;-999999;13;19373;0;1;722;20095;1;1;1;1;ProcFischi1;ListBlockFischi;18;1;2;0;0;5;Pr5_B;175;1;op;5;2;9;1;18;1;0;TrialProc;3599;678;Pr5_B;179;1457;1277;ListFischi1;0;;2;203;164953;7;15;1489;166442;337;1;1489;1;1443;318;1152;1;1
TMS_Ibrahim;57;4;"<?xml version=""1.0""?>\n<Clock xmlns:dt=""urn:schemas-microsoft-com:datatypes""><Description dt:dt=""string"">E-Prime Primary Realtime Clock</Description><StartTime><Timestamp dt:dt=""int"">0</Timestamp><DateUtc dt:dt=""string"">2023-06-30T16:04:32Z</DateUtc></StartTime><FrequencyChanges><FrequencyChange><Frequency dt:dt=""r8"">3312832</Frequency><Timestamp dt:dt=""r8"">85600099014</Timestamp><Current dt:dt=""r8"">0</Current><DateUtc dt:dt=""string"">2023-06-30T16:04:32Z</DateUtc></FrequencyChange></FrequencyChanges></Clock>\n";TMS_Ibrahim-57-4;75.028;1.0.0.561;1;;-298824479;2.0.10.242;2.0.10.242;06-30-2023;30/06/2023 16:04;18:04:32;2.0.10.147;0;;-999999;21;16986;0;1;885;17871;1;1;1;2;1;1;1;BlockProcFischi;BlockList;1;25;0;;-999999;13;19373;0;1;722;20095;1;1;1;1;ProcFischi1;ListBlockFischi;19;1;1;1;1;3;Pomod_B;200;2;op;3;2;47;1;19;2;0;TrialProc;2981;1324;Pomod_B;84;1768;1683;ListFischi1;0;;2;203;173424;12;13;1802;175226;490;1;1802;1;615;337;1312;1;1
TMS_Ibrahim;57;4;"<?xml version=""1.0""?>\n<Clock xmlns:dt=""urn:schemas-microsoft-com:datatypes""><Description dt:dt=""string"">E-Prime Primary Realtime Clock</Description><StartTime><Timestamp dt:dt=""int"">0</Timestamp><DateUtc dt:dt=""string"">2023-06-30T16:04:32Z</DateUtc></StartTime><FrequencyChanges><FrequencyChange><Frequency dt:dt=""r8"">3312832</Frequency><Timestamp dt:dt=""r8"">85600099014</Timestamp><Current dt:dt=""r8"">0</Current><DateUtc dt:dt=""string"">2023-06-30T16:04:32Z</DateUtc></FrequencyChange></FrequencyChanges></Clock>\n";TMS_Ibrahim-57-4;75.028;1.0.0.561;1;;-298824479;2.0.10.242;2.0.10.242;06-30-2023;30/06/2023 16:04;18:04:32;2.0.10.147;0;;-999999;21;16986;0;1;885;17871;1;1;1;2;1;1;1;BlockProcFischi;BlockList;1;25;0;;-999999;13;19373;0;1;722;20095;1;1;1;1;ProcFischi1;ListBlockFischi;20;1;2;1;0;5;Prmod_B;175;1;op;5;2;15;1;20;1;0;TrialProc;2758;1325;Prmod_B;14;1643;1657;ListFischi1;0;;2;203;181195;12;15;1662;182857;382;1;1662;1;714;482;1280;1;1
TMS_Ibrahim;57;4;"<?xml version=""1.0""?>\n<Clock xmlns:dt=""urn:schemas-microsoft-com:datatypes""><Description dt:dt=""string"">E-Prime Primary Realtime Clock</Description><StartTime><Timestamp dt:dt=""int"">0</Timestamp><DateUtc dt:dt=""string"">2023-06-30T16:04:32Z</DateUtc></StartTime><FrequencyChanges><FrequencyChange><Frequency dt:dt=""r8"">3312832</Frequency><Timestamp dt:dt=""r8"">85600099014</Timestamp><Current dt:dt=""r8"">0</Current><DateUtc dt:dt=""string"">2023-06-30T16:04:32Z</DateUtc></FrequencyChange></FrequencyChanges></Clock>\n";TMS_Ibrahim-57-4;75.028;1.0.0.561;1;;-298824479;2.0.10.242;2.0.10.242;06-30-2023;30/06/2023 16:04;18:04:32;2.0.10.147;0;;-999999;21;16986;0;1;885;17871;1;1;1;2;1;1;1;BlockProcFischi;BlockList;1;25;0;;-999999;13;19373;0;1;722;20095;1;1;1;1;ProcFischi1;ListBlockFischi;21;1;2;0;0;3;Pr5_B;150;3;ug;3;2;20;1;21;3;1;TrialProc;2349;684;Pr5_B;167;1452;1284;ListFischi1;0;;2;203;189793;10;13;1480;191273;440;1;1480;1;1078;218;1040;1;1
TMS_Ibrahim;57;4;"<?xml version=""1.0""?>\n<Clock xmlns:dt=""urn:schemas-microsoft-com:datatypes""><Description dt:dt=""string"">E-Prime Primary Realtime Clock</Description><StartTime><Timestamp dt:dt=""int"">0</Timestamp><DateUtc dt:dt=""string"">2023-06-30T16:04:32Z</DateUtc></StartTime><FrequencyChanges><FrequencyChange><Frequency dt:dt=""r8"">3312832</Frequency><Timestamp dt:dt=""r8"">85600099014</Timestamp><Current dt:dt=""r8"">0</Current><DateUtc dt:dt=""string"">2023-06-30T16:04:32Z</DateUtc></FrequencyChange></FrequencyChanges></Clock>\n";TMS_Ibrahim-57-4;75.028;1.0.0.561;1;;-298824479;2.0.10.242;2.0.10.242;06-30-2023;30/06/2023 16:04;18:04:32;2.0.10.147;0;;-999999;21;16986;0;1;885;17871;1;1;1;2;1;1;1;BlockProcFischi;BlockList;1;25;0;;-999999;13;19373;0;1;722;20095;1;1;1;1;ProcFischi1;ListBlockFischi;22;1;2;0;0;3;Pr3_B;150;3;ug;3;2;18;1;22;3;1;TrialProc;3033;723;Pr3_B;92;1815;1723;ListFischi1;0;;2;203;198482;12;13;1847;200329;455;1;1847;1;668;276;1392;1;1
TMS_Ibrahim;57;4;"<?xml version=""1.0""?>\n<Clock xmlns:dt=""urn:schemas-microsoft-com:datatypes""><Description dt:dt=""string"">E-Prime Primary Realtime Clock</Description><StartTime><Timestamp dt:dt=""int"">0</Timestamp><DateUtc dt:dt=""string"">2023-06-30T16:04:32Z</DateUtc></StartTime><FrequencyChanges><FrequencyChange><Frequency dt:dt=""r8"">3312832</Frequency><Timestamp dt:dt=""r8"">85600099014</Timestamp><Current dt:dt=""r8"">0</Current><DateUtc dt:dt=""string"">2023-06-30T16:04:32Z</DateUtc></FrequencyChange></FrequencyChanges></Clock>\n";TMS_Ibrahim-57-4;75.028;1.0.0.561;1;;-298824479;2.0.10.242;2.0.10.242;06-30-2023;30/06/2023 16:04;18:04:32;2.0.10.147;0;;-999999;21;16986;0;1;885;17871;1;1;1;2;1;1;1;BlockProcFischi;BlockList;1;25;0;;-999999;13;19373;0;1;722;20095;1;1;1;1;ProcFischi1;ListBlockFischi;23;1;2;0;0;3;Pr2_B;125;3;ug;3;2;22;1;23;3;1;TrialProc;2178;729;Pr2_B;86;1349;1262;ListFischi1;0;;2;203;207207;17;13;1378;208585;370;1;1378;1;1130;377;1008;1;1
TMS_Ibrahim;57;4;"<?xml version=""1.0""?>\n<Clock xmlns:dt=""urn:schemas-microsoft-com:datatypes""><Description dt:dt=""string"">E-Prime Primary Realtime Clock</Description><StartTime><Timestamp dt:dt=""int"">0</Timestamp><DateUtc dt:dt=""string"">2023-06-30T16:04:32Z</DateUtc></StartTime><FrequencyChanges><FrequencyChange><Frequency dt:dt=""r8"">3312832</Frequency><Timestamp dt:dt=""r8"">85600099014</Timestamp><Current dt:dt=""r8"">0</Current><DateUtc dt:dt=""string"">2023-06-30T16:04:32Z</DateUtc></FrequencyChange></FrequencyChanges></Clock>\n";TMS_Ibrahim-57-4;75.028;1.0.0.561;1;;-298824479;2.0.10.242;2.0.10.242;06-30-2023;30/06/2023 16:04;18:04:32;2.0.10.147;0;;-999999;21;16986;0;1;885;17871;1;1;1;2;1;1;1;BlockProcFischi;BlockList;1;25;0;;-999999;13;19373;0;1;722;20095;1;1;1;1;ProcFischi1;ListBlockFischi;24;1;2;0;0;5;Pr5_B;150;1;op;5;2;4;1;24;1;0;TrialProc;2552;684;Pr5_B;156;1441;1284;ListFischi1;0;;2;203;215249;12;15;1464;216713;360;1;1464;1;1947;282;1104;1;1
TMS_Ibrahim;57;4;"<?xml version=""1.0""?>\n<Clock xmlns:dt=""urn:schemas-microsoft-com:datatypes""><Description dt:dt=""string"">E-Prime Primary Realtime Clock</Description><StartTime><Timestamp dt:dt=""int"">0</Timestamp><DateUtc dt:dt=""string"">2023-06-30T16:04:32Z</DateUtc></StartTime><FrequencyChanges><FrequencyChange><Frequency dt:dt=""r8"">3312832</Frequency><Timestamp dt:dt=""r8"">85600099014</Timestamp><Current dt:dt=""r8"">0</Current><DateUtc dt:dt=""string"">2023-06-30T16:04:32Z</DateUtc></FrequencyChange></FrequencyChanges></Clock>\n";TMS_Ibrahim-57-4;75.028;1.0.0.561;1;;-298824479;2.0.10.242;2.0.10.242;06-30-2023;30/06/2023 16:04;18:04:32;2.0.10.147;0;;-999999;21;16986;0;1;885;17871;1;1;1;2;1;1;1;BlockProcFischi;BlockList;1;25;0;;-999999;13;19373;0;1;722;20095;1;1;1;1;ProcFischi1;ListBlockFischi;25;1;1;0;0;5;Po3_B;150;4;ug;5;2;50;1;25;4;1;TrialProc;1332;1325;Po3_B;40;1631;1591;ListFischi1;0;;2;203;224858;12;151;4926;229784;383;1;1663;1;1878;484;1280;1;1
TMS_Ibrahim;57;4;"<?xml version=""1.0""?>\n<Clock xmlns:dt=""urn:schemas-microsoft-com:datatypes""><Description dt:dt=""string"">E-Prime Primary Realtime Clock</Description><StartTime><Timestamp dt:dt=""int"">0</Timestamp><DateUtc dt:dt=""string"">2023-06-30T16:04:32Z</DateUtc></StartTime><FrequencyChanges><FrequencyChange><Frequency dt:dt=""r8"">3312832</Frequency><Timestamp dt:dt=""r8"">85600099014</Timestamp><Current dt:dt=""r8"">0</Current><DateUtc dt:dt=""string"">2023-06-30T16:04:32Z</DateUtc></FrequencyChange></FrequencyChanges></Clock>\n";TMS_Ibrahim-57-4;75.028;1.0.0.561;1;;-298824479;2.0.10.242;2.0.10.242;06-30-2023;30/06/2023 16:04;18:04:32;2.0.10.147;0;;-999999;21;16986;0;1;885;17871;1;1;1;2;1;1;1;BlockProcFischi;BlockList;1;25;0;;-999999;13;19373;0;1;722;20095;1;1;1;1;ProcFischi1;ListBlockFischi;26;1;1;0;0;5;Po5_B;125;4;ug;5;2;52;1;26;4;1;TrialProc;1516;992;Po5_B;9;1496;1486;ListFischi1;0;;2;203;234146;14;15;1526;235672;262;1;1526;1;749;237;1264;1;1
TMS_Ibrahim;57;4;"<?xml version=""1.0""?>\n<Clock xmlns:dt=""urn:schemas-microsoft-com:datatypes""><Description dt:dt=""string"">E-Prime Primary Realtime Clock</Description><StartTime><Timestamp dt:dt=""int"">0</Timestamp><DateUtc dt:dt=""string"">2023-06-30T16:04:32Z</DateUtc></StartTime><FrequencyChanges><FrequencyChange><Frequency dt:dt=""r8"">3312832</Frequency><Timestamp dt:dt=""r8"">85600099014</Timestamp><Current dt:dt=""r8"">0</Current><DateUtc dt:dt=""string"">2023-06-30T16:04:32Z</DateUtc></FrequencyChange></FrequencyChanges></Clock>\n";TMS_Ibrahim-57-4;75.028;1.0.0.561;1;;-298824479;2.0.10.242;2.0.10.242;06-30-2023;30/06/2023 16:04;18:04:32;2.0.10.147;0;;-999999;21;16986;0;1;885;17871;1;1;1;2;1;1;1;BlockProcFischi;BlockList;1;25;0;;-999999;13;19373;0;1;722;20095;1;1;1;1;ProcFischi1;ListBlockFischi;27;1;2;0;0;3;Pr2_B;100;3;ug;3;2;17;1;27;3;1;TrialProc;2350;720;Pr2_B;95;1348;1253;ListFischi1;0;;2;203;243657;6;13;1375;245032;351;1;1375;1;1310;235;1024;1;1
TMS_Ibrahim;57;4;"<?xml version=""1.0""?>\n<Clock xmlns:dt=""urn:schemas-microsoft-com:datatypes""><Description dt:dt=""string"">E-Prime Primary Realtime Clock</Description><StartTime><Timestamp dt:dt=""int"">0</Timestamp><DateUtc dt:dt=""string"">2023-06-30T16:04:32Z</DateUtc></StartTime><FrequencyChanges><FrequencyChange><Frequency dt:dt=""r8"">3312832</Frequency><Timestamp dt:dt=""r8"">85600099014</Timestamp><Current dt:dt=""r8"">0</Current><DateUtc dt:dt=""string"">2023-06-30T16:04:32Z</DateUtc></FrequencyChange></FrequencyChanges></Clock>\n";TMS_Ibrahim-57-4;75.028;1.0.0.561;1;;-298824479;2.0.10.242;2.0.10.242;06-30-2023;30/06/2023 16:04;18:04:32;2.0.10.147;0;;-999999;21;16986;0;1;885;17871;1;1;1;2;1;1;1;BlockProcFischi;BlockList;1;25;0;;-999999;13;19373;0;1;722;20095;1;1;1;1;ProcFischi1;ListBlockFischi;28;1;1;0;0;3;Po3_B;175;2;op;3;2;39;1;28;2;0;TrialProc;2398;1319;Po3_B;71;1656;1586;ListFischi1;0;;2;203;253371;8;13;1693;255064;349;1;1693;1;753;347;1344;1;1
TMS_Ibrahim;57;4;"<?xml version=""1.0""?>\n<Clock xmlns:dt=""urn:schemas-microsoft-com:datatypes""><Description dt:dt=""string"">E-Prime Primary Realtime Clock</Description><StartTime><Timestamp dt:dt=""int"">0</Timestamp><DateUtc dt:dt=""string"">2023-06-30T16:04:32Z</DateUtc></StartTime><FrequencyChanges><FrequencyChange><Frequency dt:dt=""r8"">3312832</Frequency><Timestamp dt:dt=""r8"">85600099014</Timestamp><Current dt:dt=""r8"">0</Current><DateUtc dt:dt=""string"">2023-06-30T16:04:32Z</DateUtc></FrequencyChange></FrequencyChanges></Clock>\n";TMS_Ibrahim-57-4;75.028;1.0.0.561;1;;-298824479;2.0.10.242;2.0.10.242;06-30-2023;30/06/2023 16:04;18:04:32;2.0.10.147;0;;-999999;21;16986;0;1;885;17871;1;1;1;2;1;1;1;BlockProcFischi;BlockList;1;25;0;;-999999;13;19373;0;1;722;20095;1;1;1;1;ProcFischi1;ListBlockFischi;29;1;1;0;0;3;Po4_B;150;2;op;3;2;40;1;29;2;0;TrialProc;2423;1346;Po4_B;190;1529;1719;ListFischi1;0;;2;203;261410;6;13;1558;262968;342;1;1558;1;787;336;1216;1;1
TMS_Ibrahim;57;4;"<?xml version=""1.0""?>\n<Clock xmlns:dt=""urn:schemas-microsoft-com:datatypes""><Description dt:dt=""string"">E-Prime Primary Realtime Clock</Description><StartTime><Timestamp dt:dt=""int"">0</Timestamp><DateUtc dt:dt=""string"">2023-06-30T16:04:32Z</DateUtc></StartTime><FrequencyChanges><FrequencyChange><Frequency dt:dt=""r8"">3312832</Frequency><Timestamp dt:dt=""r8"">85600099014</Timestamp><Current dt:dt=""r8"">0</Current><DateUtc dt:dt=""string"">2023-06-30T16:04:32Z</DateUtc></FrequencyChange></FrequencyChanges></Clock>\n";TMS_Ibrahim-57-4;75.028;1.0.0.561;1;;-298824479;2.0.10.242;2.0.10.242;06-30-2023;30/06/2023 16:04;18:04:32;2.0.10.147;0;;-999999;21;16986;0;1;885;17871;1;1;1;2;1;1;1;BlockProcFischi;BlockList;1;25;0;;-999999;13;19373;0;1;722;20095;1;1;1;1;ProcFischi1;ListBlockFischi;30;1;1;0;1;3;Po8_B;150;2;op;3;2;37;1;30;2;0;TrialProc;2692;1254;Po8_B;1;1586;1587;ListFischi1;0;;2;203;270284;9;133;2204;272488;524;1;1612;1;897;280;1088;1;1
TMS_Ibrahim;57;4;"<?xml version=""1.0""?>\n<Clock xmlns:dt=""urn:schemas-microsoft-com:datatypes""><Description dt:dt=""string"">E-Prime Primary Realtime Clock</Description><StartTime><Timestamp dt:dt=""int"">0</Timestamp><DateUtc dt:dt=""string"">2023-06-30T16:04:32Z</DateUtc></StartTime><FrequencyChanges><FrequencyChange><Frequency dt:dt=""r8"">3312832</Frequency><Timestamp dt:dt=""r8"">85600099014</Timestamp><Current dt:dt=""r8"">0</Current><DateUtc dt:dt=""string"">2023-06-30T16:04:32Z</DateUtc></FrequencyChange></FrequencyChanges></Clock>\n";TMS_Ibrahim-57-4;75.028;1.0.0.561;1;;-298824479;2.0.10.242;2.0.10.242;06-30-2023;30/06/2023 16:04;18:04:32;2.0.10.147;0;;-999999;21;16986;0;1;885;17871;1;1;1;2;1;1;1;BlockProcFischi;BlockList;1;25;0;;-999999;13;19373;0;1;722;20095;1;1;1;1;ProcFischi1;ListBlockFischi;31;1;1;0;0;3;Po3_B;125;2;op;3;2;44;1;31;2;0;TrialProc;2623;1326;Po3_B;23;1571;1594;ListFischi1;0;;2;203;278128;15;13;1607;279735;441;1;1607;1;629;454;1166;1;1
TMS_Ibrahim;57;4;"<?xml version=""1.0""?>\n<Clock xmlns:dt=""urn:schemas-microsoft-com:datatypes""><Description dt:dt=""string"">E-Prime Primary Realtime Clock</Description><StartTime><Timestamp dt:dt=""int"">0</Timestamp><DateUtc dt:dt=""string"">2023-06-30T16:04:32Z</DateUtc></StartTime><FrequencyChanges><FrequencyChange><Frequency dt:dt=""r8"">3312832</Frequency><Timestamp dt:dt=""r8"">85600099014</Timestamp><Current dt:dt=""r8"">0</Current><DateUtc dt:dt=""string"">2023-06-30T16:04:32Z</DateUtc></FrequencyChange></FrequencyChanges></Clock>\n";TMS_Ibrahim-57-4;75.028;1.0.0.561;1;;-298824479;2.0.10.242;2.0.10.242;06-30-2023;30/06/2023 16:04;18:04:32;2.0.10.147;0;;-999999;21;16986;0;1;885;17871;1;1;1;2;1;1;1;BlockProcFischi;BlockList;1;25;0;;-999999;13;19373;0;1;722;20095;1;1;1;1;ProcFischi1;ListBlockFischi;32;1;1;0;0;5;Po2_B;100;4;ug;5;2;59;1;32;4;1;TrialProc;1913;1594;Po2_B;114;1706;1820;ListFischi1;0;;2;203;286206;14;155;1993;288199;313;1;1737;1;726;330;1424;1;1
TMS_Ibrahim;57;4;"<?xml version=""1.0""?>\n<Clock xmlns:dt=""urn:schemas-microsoft-com:datatypes""><Description dt:dt=""string"">E-Prime Primary Realtime Clock</Description><StartTime><Timestamp dt:dt=""int"">0</Timestamp><DateUtc dt:dt=""string"">2023-06-30T16:04:32Z</DateUtc></StartTime><FrequencyChanges><FrequencyChange><Frequency dt:dt=""r8"">3312832</Frequency><Timestamp dt:dt=""r8"">85600099014</Timestamp><Current dt:dt=""r8"">0</Current><DateUtc dt:dt=""string"">2023-06-30T16:04:32Z</DateUtc></FrequencyChange></FrequencyChanges></Clock>\n";TMS_Ibrahim-57-4;75.028;1.0.0.561;1;;-298824479;2.0.10.242;2.0.10.242;06-30-2023;30/06/2023 16:04;18:04:32;2.0.10.147;0;;-999999;21;16986;0;1;885;17871;1;1;1;2;1;1;1;BlockProcFischi;BlockList;1;25;0;;-999999;13;19373;0;1;722;20095;1;1;1;1;ProcFischi1;ListBlockFischi;33;1;2;0;0;5;Pr4_B;150;1;op;5;2;8;1;33;1;0;TrialProc;2462;682;Pr4_B;217;1471;1254;ListFischi1;0;;2;203;295794;9;15;1493;297287;373;1;1493;1;1302;591;1120;1;1
TMS_Ibrahim;57;4;"<?xml version=""1.0""?>\n<Clock xmlns:dt=""urn:schemas-microsoft-com:datatypes""><Description dt:dt=""string"">E-Prime Primary Realtime Clock</Description><StartTime><Timestamp dt:dt=""int"">0</Timestamp><DateUtc dt:dt=""string"">2023-06-30T16:04:32Z</DateUtc></StartTime><FrequencyChanges><FrequencyChange><Frequency dt:dt=""r8"">3312832</Frequency><Timestamp dt:dt=""r8"">85600099014</Timestamp><Current dt:dt=""r8"">0</Current><DateUtc dt:dt=""string"">2023-06-30T16:04:32Z</DateUtc></FrequencyChange></FrequencyChanges></Clock>\n";TMS_Ibrahim-57-4;75.028;1.0.0.561;1;;-298824479;2.0.10.242;2.0.10.242;06-30-2023;30/06/2023 16:04;18:04:32;2.0.10.147;0;;-999999;21;16986;0;1;885;17871;1;1;1;2;1;1;1;BlockProcFischi;BlockList;1;25;0;;-999999;13;19373;0;1;722;20095;1;1;1;1;ProcFischi1;ListBlockFischi;34;1;2;0;0;3;Pr4_B;100;3;ug;3;2;19;1;34;3;1;TrialProc;2696;682;Pr4_B;51;1304;1254;ListFischi1;0;;2;203;303872;8;133;1847;305719;343;1;1335;1;860;446;992;1;1
TMS_Ibrahim;57;4;"<?xml version=""1.0""?>\n<Clock xmlns:dt=""urn:schemas-microsoft-com:datatypes""><Description dt:dt=""string"">E-Prime Primary Realtime Clock</Description><StartTime><Timestamp dt:dt=""int"">0</Timestamp><DateUtc dt:dt=""string"">2023-06-30T16:04:32Z</DateUtc></StartTime><FrequencyChanges><FrequencyChange><Frequency dt:dt=""r8"">3312832</Frequency><Timestamp dt:dt=""r8"">85600099014</Timestamp><Current dt:dt=""r8"">0</Current><DateUtc dt:dt=""string"">2023-06-30T16:04:32Z</DateUtc></FrequencyChange></FrequencyChanges></Clock>\n";TMS_Ibrahim-57-4;75.028;1.0.0.561;1;;-298824479;2.0.10.242;2.0.10.242;06-30-2023;30/06/2023 16:04;18:04:32;2.0.10.147;0;;-999999;21;16986;0;1;885;17871;1;1;1;2;1;1;1;BlockProcFischi;BlockList;1;25;0;;-999999;13;19373;0;1;722;20095;1;1;1;1;ProcFischi1;ListBlockFischi;35;1;1;0;0;5;Po4_B;100;4;ug;5;2;56;1;35;4;1;TrialProc;1617;1348;Po4_B;169;1552;1721;ListFischi1;0;;2;203;312655;9;15;1576;314231;248;1;1576;1;1334;470;1328;1;1
TMS_Ibrahim;57;4;"<?xml version=""1.0""?>\n<Clock xmlns:dt=""urn:schemas-microsoft-com:datatypes""><Description dt:dt=""string"">E-Prime Primary Realtime Clock</Description><StartTime><Timestamp dt:dt=""int"">0</Timestamp><DateUtc dt:dt=""string"">2023-06-30T16:04:32Z</DateUtc></StartTime><FrequencyChanges><FrequencyChange><Frequency dt:dt=""r8"">3312832</Frequency><Timestamp dt:dt=""r8"">85600099014</Timestamp><Current dt:dt=""r8"">0</Current><DateUtc dt:dt=""string"">2023-06-30T16:04:32Z</DateUtc></FrequencyChange></FrequencyChanges></Clock>\n";TMS_Ibrahim-57-4;75.028;1.0.0.561;1;;-298824479;2.0.10.242;2.0.10.242;06-30-2023;30/06/2023 16:04;18:04:32;2.0.10.147;0;;-999999;21;16986;0;1;885;17871;1;1;1;2;1;1;1;BlockProcFischi;BlockList;1;25;0;;-999999;13;19373;0;1;722;20095;1;1;1;1;ProcFischi1;ListBlockFischi;36;1;1;0;1;5;Po5_B;100;4;ug;5;2;62;1;36;4;1;TrialProc;2176;992;Po5_B;23;1463;1486;ListFischi1;0;;2;203;321421;13;15;1498;322919;298;1;1498;1;864;511;1200;1;1
