ExperimentName;Subject;Session;Clock.Information;DataFile.Basename;Display.RefreshRate;ExperimentVersion;Group;Name;RandomSeed;RuntimeVersion;RuntimeVersionExpected;SessionDate;SessionStartDateTimeUtc;SessionTime;StudioVersion;SyncEprimeKinB1.ACC;SyncEprimeKinB1.CRESP;SyncEprimeKinB1.DurationError;SyncEprimeKinB1.OnsetDelay;SyncEprimeKinB1.OnsetTime;SyncEprimeKinB1.OnsetToOnsetTime;SyncEprimeKinB1.RESP;SyncEprimeKinB1.RT;SyncEprimeKinB1.RTTime;Block;BlockINT_0Fischi_1Suoni;BlockList;BlockList.Cycle;BlockList.Sample;ContatoreSuoni;NumSuono;Procedure[Block];Running[Block];Suonilist;SuonoFinSoglia;SyncEprimeKinFischi1.ACC;SyncEprimeKinFischi1.CRESP;SyncEprimeKinFischi1.DurationError;SyncEprimeKinFischi1.OnsetDelay;SyncEprimeKinFischi1.OnsetTime;SyncEprimeKinFischi1.OnsetToOnsetTime;SyncEprimeKinFischi1.RESP;SyncEprimeKinFischi1.RT;SyncEprimeKinFischi1.RTTime;Trial;ListBlockFischi;ListBlockFischi.Cycle;ListBlockFischi.Sample;Procedure[Trial];Running[Trial];SubTrial;AccSogg1;Avatar_Giu1_Su2;CatchTrial_CORR;ContatoreFinestraSoglia;CorrectResponse;File_Name;FinestraSoglia;IdcondEEG;Istruzione;KeySoggetto1;KeySoggetto2;ListFischi1;ListFischi1.Cycle;ListFischi1.Sample;NumeroSuono;OP_UG;Procedure[SubTrial];Resoconto.RT;RTChange;RTimage;RTNetto;RTSubj;RTTouch;Running[SubTrial];StartGo.ACC;StartGo.CRESP;StartGo.DurationError;StartGo.OnsetDelay;StartGo.OnsetTime;StartGo.OnsetToOnsetTime;StartGo.RESP;StartGo.RT;StartGo.RTTime;StartSoggetto1;StartSoggetto2;StopSoggetto1;StopSoggetto2;StopTrial.RT;tempo;TMSoggetto1;ValiditaTrial;Vincitore
TMS_Ibrahim;58;1;"<?xml version=""1.0""?>\n<Clock xmlns:dt=""urn:schemas-microsoft-com:datatypes""><Description dt:dt=""string"">E-Prime Primary Realtime Clock</Description><StartTime><Timestamp dt:dt=""int"">0</Timestamp><DateUtc dt:dt=""string"">2023-07-18T09:06:15Z</DateUtc></StartTime><FrequencyChanges><FrequencyChange><Frequency dt:dt=""r8"">3312841</Frequency><Timestamp dt:dt=""r8"">25298006776</Timestamp><Current dt:dt=""r8"">0</Current><DateUtc dt:dt=""string"">2023-07-18T09:06:15Z</DateUtc></FrequencyChange></FrequencyChanges></Clock>\n";TMS_Ibrahim-58-1;75.028;1.0.0.561;1;;-471126863;2.0.10.242;2.0.10.242;07-18-2023;18/07/2023 09:06;11:06:16;2.0.10.147;0;;-999999;25;29895;0;1;3489;33384;1;1;1;2;1;1;1;BlockProcFischi;BlockList;1;150;0;;-999999;33;36218;0;1;1333;37551;1;1;1;1;ProcFischi1;ListBlockFischi;1;1;1;1;0;3;Pomod_B;250;2;op;3;2;47;1;1;2;0;TrialProc;1171;1349;Pomod_B;255;1977;1722;ListFischi1;0;;5;210;40758;23;13;2002;42760;658;1;2002;1;677;442;1344;1;1
TMS_Ibrahim;58;1;"<?xml version=""1.0""?>\n<Clock xmlns:dt=""urn:schemas-microsoft-com:datatypes""><Description dt:dt=""string"">E-Prime Primary Realtime Clock</Description><StartTime><Timestamp dt:dt=""int"">0</Timestamp><DateUtc dt:dt=""string"">2023-07-18T09:06:15Z</DateUtc></StartTime><FrequencyChanges><FrequencyChange><Frequency dt:dt=""r8"">3312841</Frequency><Timestamp dt:dt=""r8"">25298006776</Timestamp><Current dt:dt=""r8"">0</Current><DateUtc dt:dt=""string"">2023-07-18T09:06:15Z</DateUtc></FrequencyChange></FrequencyChanges></Clock>\n";TMS_Ibrahim-58-1;75.028;1.0.0.561;1;;-471126863;2.0.10.242;2.0.10.242;07-18-2023;18/07/2023 09:06;11:06:16;2.0.10.147;0;;-999999;25;29895;0;1;3489;33384;1;1;1;2;1;1;1;BlockProcFischi;BlockList;1;150;0;;-999999;33;36218;0;1;1333;37551;1;1;1;1;ProcFischi1;ListBlockFischi;2;1;2;0;0;5;Pr4_B;250;1;op;5;2;13;1;2;1;0;TrialProc;713;693;Pr4_B;289;1555;1267;ListFischi1;0;;1;207;47734;17;15;1586;49320;386;1;1586;1;407;462;1200;1;1
TMS_Ibrahim;58;1;"<?xml version=""1.0""?>\n<Clock xmlns:dt=""urn:schemas-microsoft-com:datatypes""><Description dt:dt=""string"">E-Prime Primary Realtime Clock</Description><StartTime><Timestamp dt:dt=""int"">0</Timestamp><DateUtc dt:dt=""string"">2023-07-18T09:06:15Z</DateUtc></StartTime><FrequencyChanges><FrequencyChange><Frequency dt:dt=""r8"">3312841</Frequency><Timestamp dt:dt=""r8"">25298006776</Timestamp><Current dt:dt=""r8"">0</Current><DateUtc dt:dt=""string"">2023-07-18T09:06:15Z</DateUtc></FrequencyChange></FrequencyChanges></Clock>\n";TMS_Ibrahim-58-1;75.028;1.0.0.561;1;;-471126863;2.0.10.242;2.0.10.242;07-18-2023;18/07/2023 09:06;11:06:16;2.0.10.147;0;;-999999;25;29895;0;1;3489;33384;1;1;1;2;1;1;1;BlockProcFischi;BlockList;1;150;0;;-999999;33;36218;0;1;1333;37551;1;1;1;1;ProcFischi1;ListBlockFischi;3;1;1;0;0;5;Po8_B;250;4;ug;5;2;53;1;3;4;1;TrialProc;720;1263;Po8_B;138;1734;1595;ListFischi1;0;;2;203;54694;15;15;1762;56456;354;1;1762;1;525;311;1408;1;1
TMS_Ibrahim;58;1;"<?xml version=""1.0""?>\n<Clock xmlns:dt=""urn:schemas-microsoft-com:datatypes""><Description dt:dt=""string"">E-Prime Primary Realtime Clock</Description><StartTime><Timestamp dt:dt=""int"">0</Timestamp><DateUtc dt:dt=""string"">2023-07-18T09:06:15Z</DateUtc></StartTime><FrequencyChanges><FrequencyChange><Frequency dt:dt=""r8"">3312841</Frequency><Timestamp dt:dt=""r8"">25298006776</Timestamp><Current dt:dt=""r8"">0</Current><DateUtc dt:dt=""string"">2023-07-18T09:06:15Z</DateUtc></FrequencyChange></FrequencyChanges></Clock>\n";TMS_Ibrahim-58-1;75.028;1.0.0.561;1;;-471126863;2.0.10.242;2.0.10.242;07-18-2023;18/07/2023 09:06;11:06:16;2.0.10.147;0;;-999999;25;29895;0;1;3489;33384;1;1;1;2;1;1;1;BlockProcFischi;BlockList;1;150;0;;-999999;33;36218;0;1;1333;37551;1;1;1;1;ProcFischi1;ListBlockFischi;4;1;1;0;0;5;Po2_B;225;4;ug;5;2;59;1;4;4;1;TrialProc;649;1590;Po2_B;89;1728;1817;ListFischi1;0;;3;201;62230;9;15;1762;63992;226;1;1762;1;1014;561;1536;1;1
TMS_Ibrahim;58;1;"<?xml version=""1.0""?>\n<Clock xmlns:dt=""urn:schemas-microsoft-com:datatypes""><Description dt:dt=""string"">E-Prime Primary Realtime Clock</Description><StartTime><Timestamp dt:dt=""int"">0</Timestamp><DateUtc dt:dt=""string"">2023-07-18T09:06:15Z</DateUtc></StartTime><FrequencyChanges><FrequencyChange><Frequency dt:dt=""r8"">3312841</Frequency><Timestamp dt:dt=""r8"">25298006776</Timestamp><Current dt:dt=""r8"">0</Current><DateUtc dt:dt=""string"">2023-07-18T09:06:15Z</DateUtc></FrequencyChange></FrequencyChanges></Clock>\n";TMS_Ibrahim-58-1;75.028;1.0.0.561;1;;-471126863;2.0.10.242;2.0.10.242;07-18-2023;18/07/2023 09:06;11:06:16;2.0.10.147;0;;-999999;25;29895;0;1;3489;33384;1;1;1;2;1;1;1;BlockProcFischi;BlockList;1;150;0;;-999999;33;36218;0;1;1333;37551;1;1;1;1;ProcFischi1;ListBlockFischi;5;1;2;0;1;5;Pr3_B;250;1;op;5;2;2;1;5;1;0;TrialProc;1006;728;Pr3_B;179;1908;1728;ListFischi1;0;;2;203;69970;13;15;1942;71912;502;1;1942;1;1617;324;1440;1;1
TMS_Ibrahim;58;1;"<?xml version=""1.0""?>\n<Clock xmlns:dt=""urn:schemas-microsoft-com:datatypes""><Description dt:dt=""string"">E-Prime Primary Realtime Clock</Description><StartTime><Timestamp dt:dt=""int"">0</Timestamp><DateUtc dt:dt=""string"">2023-07-18T09:06:15Z</DateUtc></StartTime><FrequencyChanges><FrequencyChange><Frequency dt:dt=""r8"">3312841</Frequency><Timestamp dt:dt=""r8"">25298006776</Timestamp><Current dt:dt=""r8"">0</Current><DateUtc dt:dt=""string"">2023-07-18T09:06:15Z</DateUtc></FrequencyChange></FrequencyChanges></Clock>\n";TMS_Ibrahim-58-1;75.028;1.0.0.561;1;;-471126863;2.0.10.242;2.0.10.242;07-18-2023;18/07/2023 09:06;11:06:16;2.0.10.147;0;;-999999;25;29895;0;1;3489;33384;1;1;1;2;1;1;1;BlockProcFischi;BlockList;1;150;0;;-999999;33;36218;0;1;1333;37551;1;1;1;1;ProcFischi1;ListBlockFischi;6;1;2;0;0;5;Pr2_B;225;1;op;5;2;11;1;6;1;0;TrialProc;738;730;Pr2_B;423;1687;1264;ListFischi1;0;;3;201;77232;15;15;1720;78952;295;1;1720;1;715;437;1425;1;1
TMS_Ibrahim;58;1;"<?xml version=""1.0""?>\n<Clock xmlns:dt=""urn:schemas-microsoft-com:datatypes""><Description dt:dt=""string"">E-Prime Primary Realtime Clock</Description><StartTime><Timestamp dt:dt=""int"">0</Timestamp><DateUtc dt:dt=""string"">2023-07-18T09:06:15Z</DateUtc></StartTime><FrequencyChanges><FrequencyChange><Frequency dt:dt=""r8"">3312841</Frequency><Timestamp dt:dt=""r8"">25298006776</Timestamp><Current dt:dt=""r8"">0</Current><DateUtc dt:dt=""string"">2023-07-18T09:06:15Z</DateUtc></FrequencyChange></FrequencyChanges></Clock>\n";TMS_Ibrahim-58-1;75.028;1.0.0.561;1;;-471126863;2.0.10.242;2.0.10.242;07-18-2023;18/07/2023 09:06;11:06:16;2.0.10.147;0;;-999999;25;29895;0;1;3489;33384;1;1;1;2;1;1;1;BlockProcFischi;BlockList;1;150;0;;-999999;33;36218;0;1;1333;37551;1;1;1;1;ProcFischi1;ListBlockFischi;7;1;1;0;0;5;Po2_B;200;4;ug;5;2;54;1;7;4;1;TrialProc;832;1599;Po2_B;73;1900;1826;ListFischi1;0;;2;203;85920;17;15;1927;87847;361;1;1927;1;1145;220;1566;1;1
TMS_Ibrahim;58;1;"<?xml version=""1.0""?>\n<Clock xmlns:dt=""urn:schemas-microsoft-com:datatypes""><Description dt:dt=""string"">E-Prime Primary Realtime Clock</Description><StartTime><Timestamp dt:dt=""int"">0</Timestamp><DateUtc dt:dt=""string"">2023-07-18T09:06:15Z</DateUtc></StartTime><FrequencyChanges><FrequencyChange><Frequency dt:dt=""r8"">3312841</Frequency><Timestamp dt:dt=""r8"">25298006776</Timestamp><Current dt:dt=""r8"">0</Current><DateUtc dt:dt=""string"">2023-07-18T09:06:15Z</DateUtc></FrequencyChange></FrequencyChanges></Clock>\n";TMS_Ibrahim-58-1;75.028;1.0.0.561;1;;-471126863;2.0.10.242;2.0.10.242;07-18-2023;18/07/2023 09:06;11:06:16;2.0.10.147;0;;-999999;25;29895;0;1;3489;33384;1;1;1;2;1;1;1;BlockProcFischi;BlockList;1;150;0;;-999999;33;36218;0;1;1333;37551;1;1;1;1;ProcFischi1;ListBlockFischi;8;1;1;0;0;5;Po3_B;175;4;ug;5;2;50;1;8;4;1;TrialProc;905;1329;Po3_B;69;1664;1594;ListFischi1;0;;2;203;93761;13;15;1686;95447;342;1;1686;1;929;492;1344;1;1
TMS_Ibrahim;58;1;"<?xml version=""1.0""?>\n<Clock xmlns:dt=""urn:schemas-microsoft-com:datatypes""><Description dt:dt=""string"">E-Prime Primary Realtime Clock</Description><StartTime><Timestamp dt:dt=""int"">0</Timestamp><DateUtc dt:dt=""string"">2023-07-18T09:06:15Z</DateUtc></StartTime><FrequencyChanges><FrequencyChange><Frequency dt:dt=""r8"">3312841</Frequency><Timestamp dt:dt=""r8"">25298006776</Timestamp><Current dt:dt=""r8"">0</Current><DateUtc dt:dt=""string"">2023-07-18T09:06:15Z</DateUtc></FrequencyChange></FrequencyChanges></Clock>\n";TMS_Ibrahim-58-1;75.028;1.0.0.561;1;;-471126863;2.0.10.242;2.0.10.242;07-18-2023;18/07/2023 09:06;11:06:16;2.0.10.147;0;;-999999;25;29895;0;1;3489;33384;1;1;1;2;1;1;1;BlockProcFischi;BlockList;1;150;0;;-999999;33;36218;0;1;1333;37551;1;1;1;1;ProcFischi1;ListBlockFischi;9;1;2;0;0;3;Pr5_B;250;3;ug;3;2;30;1;9;3;1;TrialProc;711;682;Pr5_B;367;1649;1281;ListFischi1;0;;2;201;101418;6;13;1677;103095;333;1;1677;1;469;583;1344;1;1
TMS_Ibrahim;58;1;"<?xml version=""1.0""?>\n<Clock xmlns:dt=""urn:schemas-microsoft-com:datatypes""><Description dt:dt=""string"">E-Prime Primary Realtime Clock</Description><StartTime><Timestamp dt:dt=""int"">0</Timestamp><DateUtc dt:dt=""string"">2023-07-18T09:06:15Z</DateUtc></StartTime><FrequencyChanges><FrequencyChange><Frequency dt:dt=""r8"">3312841</Frequency><Timestamp dt:dt=""r8"">25298006776</Timestamp><Current dt:dt=""r8"">0</Current><DateUtc dt:dt=""string"">2023-07-18T09:06:15Z</DateUtc></FrequencyChange></FrequencyChanges></Clock>\n";TMS_Ibrahim-58-1;75.028;1.0.0.561;1;;-471126863;2.0.10.242;2.0.10.242;07-18-2023;18/07/2023 09:06;11:06:16;2.0.10.147;0;;-999999;25;29895;0;1;3489;33384;1;1;1;2;1;1;1;BlockProcFischi;BlockList;1;150;0;;-999999;33;36218;0;1;1333;37551;1;1;1;1;ProcFischi1;ListBlockFischi;10;1;1;0;0;5;Po4_B;150;4;ug;5;2;51;1;10;4;1;TrialProc;611;1355;Po4_B;101;1627;1728;ListFischi1;0;;2;203;108662;13;15;1649;110311;433;1;1649;1;987;447;1216;1;1
TMS_Ibrahim;58;1;"<?xml version=""1.0""?>\n<Clock xmlns:dt=""urn:schemas-microsoft-com:datatypes""><Description dt:dt=""string"">E-Prime Primary Realtime Clock</Description><StartTime><Timestamp dt:dt=""int"">0</Timestamp><DateUtc dt:dt=""string"">2023-07-18T09:06:15Z</DateUtc></StartTime><FrequencyChanges><FrequencyChange><Frequency dt:dt=""r8"">3312841</Frequency><Timestamp dt:dt=""r8"">25298006776</Timestamp><Current dt:dt=""r8"">0</Current><DateUtc dt:dt=""string"">2023-07-18T09:06:15Z</DateUtc></FrequencyChange></FrequencyChanges></Clock>\n";TMS_Ibrahim-58-1;75.028;1.0.0.561;1;;-471126863;2.0.10.242;2.0.10.242;07-18-2023;18/07/2023 09:06;11:06:16;2.0.10.147;0;;-999999;25;29895;0;1;3489;33384;1;1;1;2;1;1;1;BlockProcFischi;BlockList;1;150;0;;-999999;33;36218;0;1;1333;37551;1;1;1;1;ProcFischi1;ListBlockFischi;11;1;2;1;1;5;Prmod_B;225;1;op;5;2;15;1;11;1;0;TrialProc;835;1324;Prmod_B;168;1827;1658;ListFischi1;0;;3;201;115808;11;15;1863;117671;391;1;1863;1;506;404;1472;1;1
TMS_Ibrahim;58;1;"<?xml version=""1.0""?>\n<Clock xmlns:dt=""urn:schemas-microsoft-com:datatypes""><Description dt:dt=""string"">E-Prime Primary Realtime Clock</Description><StartTime><Timestamp dt:dt=""int"">0</Timestamp><DateUtc dt:dt=""string"">2023-07-18T09:06:15Z</DateUtc></StartTime><FrequencyChanges><FrequencyChange><Frequency dt:dt=""r8"">3312841</Frequency><Timestamp dt:dt=""r8"">25298006776</Timestamp><Current dt:dt=""r8"">0</Current><DateUtc dt:dt=""string"">2023-07-18T09:06:15Z</DateUtc></FrequencyChange></FrequencyChanges></Clock>\n";TMS_Ibrahim-58-1;75.028;1.0.0.561;1;;-471126863;2.0.10.242;2.0.10.242;07-18-2023;18/07/2023 09:06;11:06:16;2.0.10.147;0;;-999999;25;29895;0;1;3489;33384;1;1;1;2;1;1;1;BlockProcFischi;BlockList;1;150;0;;-999999;33;36218;0;1;1333;37551;1;1;1;1;ProcFischi1;ListBlockFischi;12;1;1;0;0;3;Po3_B;250;2;op;3;2;39;1;12;2;0;TrialProc;620;1326;Po3_B;58;1652;1593;ListFischi1;0;;2;203;122952;11;13;1678;124630;321;1;1678;1;449;551;1357;1;1
TMS_Ibrahim;58;1;"<?xml version=""1.0""?>\n<Clock xmlns:dt=""urn:schemas-microsoft-com:datatypes""><Description dt:dt=""string"">E-Prime Primary Realtime Clock</Description><StartTime><Timestamp dt:dt=""int"">0</Timestamp><DateUtc dt:dt=""string"">2023-07-18T09:06:15Z</DateUtc></StartTime><FrequencyChanges><FrequencyChange><Frequency dt:dt=""r8"">3312841</Frequency><Timestamp dt:dt=""r8"">25298006776</Timestamp><Current dt:dt=""r8"">0</Current><DateUtc dt:dt=""string"">2023-07-18T09:06:15Z</DateUtc></FrequencyChange></FrequencyChanges></Clock>\n";TMS_Ibrahim-58-1;75.028;1.0.0.561;1;;-471126863;2.0.10.242;2.0.10.242;07-18-2023;18/07/2023 09:06;11:06:16;2.0.10.147;0;;-999999;25;29895;0;1;3489;33384;1;1;1;2;1;1;1;BlockProcFischi;BlockList;1;150;0;;-999999;33;36218;0;1;1333;37551;1;1;1;1;ProcFischi1;ListBlockFischi;13;1;2;0;1;3;Pr2_B;250;3;ug;3;2;27;1;13;3;1;TrialProc;719;729;Pr2_B;165;1426;1262;ListFischi1;0;;2;203;131534;12;133;2088;133622;328;1;1448;1;817;444;1120;1;1
TMS_Ibrahim;58;1;"<?xml version=""1.0""?>\n<Clock xmlns:dt=""urn:schemas-microsoft-com:datatypes""><Description dt:dt=""string"">E-Prime Primary Realtime Clock</Description><StartTime><Timestamp dt:dt=""int"">0</Timestamp><DateUtc dt:dt=""string"">2023-07-18T09:06:15Z</DateUtc></StartTime><FrequencyChanges><FrequencyChange><Frequency dt:dt=""r8"">3312841</Frequency><Timestamp dt:dt=""r8"">25298006776</Timestamp><Current dt:dt=""r8"">0</Current><DateUtc dt:dt=""string"">2023-07-18T09:06:15Z</DateUtc></FrequencyChange></FrequencyChanges></Clock>\n";TMS_Ibrahim-58-1;75.028;1.0.0.561;1;;-471126863;2.0.10.242;2.0.10.242;07-18-2023;18/07/2023 09:06;11:06:16;2.0.10.147;0;;-999999;25;29895;0;1;3489;33384;1;1;1;2;1;1;1;BlockProcFischi;BlockList;1;150;0;;-999999;33;36218;0;1;1333;37551;1;1;1;1;ProcFischi1;ListBlockFischi;14;1;1;0;0;5;Po5_B;125;4;ug;5;2;62;1;14;4;1;TrialProc;871;993;Po5_B;21;1507;1486;ListFischi1;0;;3;201;139319;11;15;1535;140854;207;1;1535;1;535;345;1328;1;1
TMS_Ibrahim;58;1;"<?xml version=""1.0""?>\n<Clock xmlns:dt=""urn:schemas-microsoft-com:datatypes""><Description dt:dt=""string"">E-Prime Primary Realtime Clock</Description><StartTime><Timestamp dt:dt=""int"">0</Timestamp><DateUtc dt:dt=""string"">2023-07-18T09:06:15Z</DateUtc></StartTime><FrequencyChanges><FrequencyChange><Frequency dt:dt=""r8"">3312841</Frequency><Timestamp dt:dt=""r8"">25298006776</Timestamp><Current dt:dt=""r8"">0</Current><DateUtc dt:dt=""string"">2023-07-18T09:06:15Z</DateUtc></FrequencyChange></FrequencyChanges></Clock>\n";TMS_Ibrahim-58-1;75.028;1.0.0.561;1;;-471126863;2.0.10.242;2.0.10.242;07-18-2023;18/07/2023 09:06;11:06:16;2.0.10.147;0;;-999999;25;29895;0;1;3489;33384;1;1;1;2;1;1;1;BlockProcFischi;BlockList;1;150;0;;-999999;33;36218;0;1;1333;37551;1;1;1;1;ProcFischi1;ListBlockFischi;15;1;1;1;0;3;Pomod_B;225;2;op;3;2;48;1;15;2;0;TrialProc;678;1327;Pomod_B;218;1905;1687;ListFischi1;0;;2;203;146875;12;13;1931;148806;283;1;1931;1;703;249;1648;1;1
TMS_Ibrahim;58;1;"<?xml version=""1.0""?>\n<Clock xmlns:dt=""urn:schemas-microsoft-com:datatypes""><Description dt:dt=""string"">E-Prime Primary Realtime Clock</Description><StartTime><Timestamp dt:dt=""int"">0</Timestamp><DateUtc dt:dt=""string"">2023-07-18T09:06:15Z</DateUtc></StartTime><FrequencyChanges><FrequencyChange><Frequency dt:dt=""r8"">3312841</Frequency><Timestamp dt:dt=""r8"">25298006776</Timestamp><Current dt:dt=""r8"">0</Current><DateUtc dt:dt=""string"">2023-07-18T09:06:15Z</DateUtc></FrequencyChange></FrequencyChanges></Clock>\n";TMS_Ibrahim-58-1;75.028;1.0.0.561;1;;-471126863;2.0.10.242;2.0.10.242;07-18-2023;18/07/2023 09:06;11:06:16;2.0.10.147;0;;-999999;25;29895;0;1;3489;33384;1;1;1;2;1;1;1;BlockProcFischi;BlockList;1;150;0;;-999999;33;36218;0;1;1333;37551;1;1;1;1;ProcFischi1;ListBlockFischi;16;1;2;0;0;3;Pr8_B;225;3;ug;3;2;21;1;16;3;1;TrialProc;770;723;Pr8_B;122;1869;1748;ListFischi1;0;;3;201;153743;8;13;1895;155638;375;1;1895;1;1020;273;1520;1;1
TMS_Ibrahim;58;1;"<?xml version=""1.0""?>\n<Clock xmlns:dt=""urn:schemas-microsoft-com:datatypes""><Description dt:dt=""string"">E-Prime Primary Realtime Clock</Description><StartTime><Timestamp dt:dt=""int"">0</Timestamp><DateUtc dt:dt=""string"">2023-07-18T09:06:15Z</DateUtc></StartTime><FrequencyChanges><FrequencyChange><Frequency dt:dt=""r8"">3312841</Frequency><Timestamp dt:dt=""r8"">25298006776</Timestamp><Current dt:dt=""r8"">0</Current><DateUtc dt:dt=""string"">2023-07-18T09:06:15Z</DateUtc></FrequencyChange></FrequencyChanges></Clock>\n";TMS_Ibrahim-58-1;75.028;1.0.0.561;1;;-471126863;2.0.10.242;2.0.10.242;07-18-2023;18/07/2023 09:06;11:06:16;2.0.10.147;0;;-999999;25;29895;0;1;3489;33384;1;1;1;2;1;1;1;BlockProcFischi;BlockList;1;150;0;;-999999;33;36218;0;1;1333;37551;1;1;1;1;ProcFischi1;ListBlockFischi;17;1;1;0;0;3;Po3_B;225;2;op;3;2;34;1;17;2;0;TrialProc;587;1331;Po3_B;153;1750;1596;ListFischi1;0;;2;203;162399;15;133;2087;164486;455;1;1783;1;357;324;1328;1;1
TMS_Ibrahim;58;1;"<?xml version=""1.0""?>\n<Clock xmlns:dt=""urn:schemas-microsoft-com:datatypes""><Description dt:dt=""string"">E-Prime Primary Realtime Clock</Description><StartTime><Timestamp dt:dt=""int"">0</Timestamp><DateUtc dt:dt=""string"">2023-07-18T09:06:15Z</DateUtc></StartTime><FrequencyChanges><FrequencyChange><Frequency dt:dt=""r8"">3312841</Frequency><Timestamp dt:dt=""r8"">25298006776</Timestamp><Current dt:dt=""r8"">0</Current><DateUtc dt:dt=""string"">2023-07-18T09:06:15Z</DateUtc></FrequencyChange></FrequencyChanges></Clock>\n";TMS_Ibrahim-58-1;75.028;1.0.0.561;1;;-471126863;2.0.10.242;2.0.10.242;07-18-2023;18/07/2023 09:06;11:06:16;2.0.10.147;0;;-999999;25;29895;0;1;3489;33384;1;1;1;2;1;1;1;BlockProcFischi;BlockList;1;150;0;;-999999;33;36218;0;1;1333;37551;1;1;1;1;ProcFischi1;ListBlockFischi;18;0;2;0;0;5;Pr2_B;;1;op;1;2;1;1;18;1;0;TrialProc;1596;729;Pr2_B;153;1750;1262;ListFischi1;0;;2;201;168999;13;1;398;169397;398;1;1;1;711;545;-397;1;0
TMS_Ibrahim;58;1;"<?xml version=""1.0""?>\n<Clock xmlns:dt=""urn:schemas-microsoft-com:datatypes""><Description dt:dt=""string"">E-Prime Primary Realtime Clock</Description><StartTime><Timestamp dt:dt=""int"">0</Timestamp><DateUtc dt:dt=""string"">2023-07-18T09:06:15Z</DateUtc></StartTime><FrequencyChanges><FrequencyChange><Frequency dt:dt=""r8"">3312841</Frequency><Timestamp dt:dt=""r8"">25298006776</Timestamp><Current dt:dt=""r8"">0</Current><DateUtc dt:dt=""string"">2023-07-18T09:06:15Z</DateUtc></FrequencyChange></FrequencyChanges></Clock>\n";TMS_Ibrahim-58-1;75.028;1.0.0.561;1;;-471126863;2.0.10.242;2.0.10.242;07-18-2023;18/07/2023 09:06;11:06:16;2.0.10.147;0;;-999999;25;29895;0;1;3489;33384;1;1;1;2;1;1;1;BlockProcFischi;BlockList;1;150;0;;-999999;33;36218;0;1;1333;37551;1;1;1;1;ProcFischi1;ListBlockFischi;19;0;1;1;0;5;Pomod_B;;4;ug;0;2;63;1;19;4;1;TrialProc;5468;1324;Pomod_B;360;2044;1683;ListFischi1;0;;2;203;177534;8;55;2839;180373;1;1;1;1;489;399;0;0;0
TMS_Ibrahim;58;1;"<?xml version=""1.0""?>\n<Clock xmlns:dt=""urn:schemas-microsoft-com:datatypes""><Description dt:dt=""string"">E-Prime Primary Realtime Clock</Description><StartTime><Timestamp dt:dt=""int"">0</Timestamp><DateUtc dt:dt=""string"">2023-07-18T09:06:15Z</DateUtc></StartTime><FrequencyChanges><FrequencyChange><Frequency dt:dt=""r8"">3312841</Frequency><Timestamp dt:dt=""r8"">25298006776</Timestamp><Current dt:dt=""r8"">0</Current><DateUtc dt:dt=""string"">2023-07-18T09:06:15Z</DateUtc></FrequencyChange></FrequencyChanges></Clock>\n";TMS_Ibrahim-58-1;75.028;1.0.0.561;1;;-471126863;2.0.10.242;2.0.10.242;07-18-2023;18/07/2023 09:06;11:06:16;2.0.10.147;0;;-999999;25;29895;0;1;3489;33384;1;1;1;2;1;1;1;BlockProcFischi;BlockList;1;150;0;;-999999;33;36218;0;1;1333;37551;1;1;1;1;ProcFischi1;ListBlockFischi;20;1;2;0;0;3;Pr3_B;200;3;ug;3;2;28;1;20;3;1;TrialProc;558;740;Pr3_B;187;1927;1741;ListFischi1;0;;5;210;187990;15;1331;4655;192645;831;1;1951;1;1037;295;1120;1;1
TMS_Ibrahim;58;1;"<?xml version=""1.0""?>\n<Clock xmlns:dt=""urn:schemas-microsoft-com:datatypes""><Description dt:dt=""string"">E-Prime Primary Realtime Clock</Description><StartTime><Timestamp dt:dt=""int"">0</Timestamp><DateUtc dt:dt=""string"">2023-07-18T09:06:15Z</DateUtc></StartTime><FrequencyChanges><FrequencyChange><Frequency dt:dt=""r8"">3312841</Frequency><Timestamp dt:dt=""r8"">25298006776</Timestamp><Current dt:dt=""r8"">0</Current><DateUtc dt:dt=""string"">2023-07-18T09:06:15Z</DateUtc></FrequencyChange></FrequencyChanges></Clock>\n";TMS_Ibrahim-58-1;75.028;1.0.0.561;1;;-471126863;2.0.10.242;2.0.10.242;07-18-2023;18/07/2023 09:06;11:06:16;2.0.10.147;0;;-999999;25;29895;0;1;3489;33384;1;1;1;2;1;1;1;BlockProcFischi;BlockList;1;150;0;;-999999;33;36218;0;1;1333;37551;1;1;1;1;ProcFischi1;ListBlockFischi;21;1;1;0;0;3;Po8_B;200;2;op;3;2;37;1;21;2;0;TrialProc;943;1266;Po8_B;124;1723;1599;ListFischi1;0;;3;201;194358;17;13;1759;196117;495;1;1759;1;683;470;1264;1;1
TMS_Ibrahim;58;1;"<?xml version=""1.0""?>\n<Clock xmlns:dt=""urn:schemas-microsoft-com:datatypes""><Description dt:dt=""string"">E-Prime Primary Realtime Clock</Description><StartTime><Timestamp dt:dt=""int"">0</Timestamp><DateUtc dt:dt=""string"">2023-07-18T09:06:15Z</DateUtc></StartTime><FrequencyChanges><FrequencyChange><Frequency dt:dt=""r8"">3312841</Frequency><Timestamp dt:dt=""r8"">25298006776</Timestamp><Current dt:dt=""r8"">0</Current><DateUtc dt:dt=""string"">2023-07-18T09:06:15Z</DateUtc></FrequencyChange></FrequencyChanges></Clock>\n";TMS_Ibrahim-58-1;75.028;1.0.0.561;1;;-471126863;2.0.10.242;2.0.10.242;07-18-2023;18/07/2023 09:06;11:06:16;2.0.10.147;0;;-999999;25;29895;0;1;3489;33384;1;1;1;2;1;1;1;BlockProcFischi;BlockList;1;150;0;;-999999;33;36218;0;1;1333;37551;1;1;1;1;ProcFischi1;ListBlockFischi;22;1;1;0;0;3;Po5_B;175;2;op;3;2;41;1;22;2;0;TrialProc;680;998;Po5_B;193;1685;1491;ListFischi1;0;;2;203;201944;15;13;1709;203653;493;1;1709;1;651;362;1216;1;1
TMS_Ibrahim;58;1;"<?xml version=""1.0""?>\n<Clock xmlns:dt=""urn:schemas-microsoft-com:datatypes""><Description dt:dt=""string"">E-Prime Primary Realtime Clock</Description><StartTime><Timestamp dt:dt=""int"">0</Timestamp><DateUtc dt:dt=""string"">2023-07-18T09:06:15Z</DateUtc></StartTime><FrequencyChanges><FrequencyChange><Frequency dt:dt=""r8"">3312841</Frequency><Timestamp dt:dt=""r8"">25298006776</Timestamp><Current dt:dt=""r8"">0</Current><DateUtc dt:dt=""string"">2023-07-18T09:06:15Z</DateUtc></FrequencyChange></FrequencyChanges></Clock>\n";TMS_Ibrahim-58-1;75.028;1.0.0.561;1;;-471126863;2.0.10.242;2.0.10.242;07-18-2023;18/07/2023 09:06;11:06:16;2.0.10.147;0;;-999999;25;29895;0;1;3489;33384;1;1;1;2;1;1;1;BlockProcFischi;BlockList;1;150;0;;-999999;33;36218;0;1;1333;37551;1;1;1;1;ProcFischi1;ListBlockFischi;23;1;2;0;0;3;Pr3_B;200;3;ug;3;2;18;1;23;3;1;TrialProc;686;729;Pr3_B;23;1707;1730;ListFischi1;0;;3;201;209328;15;13;1733;211061;629;1;1733;1;691;397;1104;1;1
TMS_Ibrahim;58;1;"<?xml version=""1.0""?>\n<Clock xmlns:dt=""urn:schemas-microsoft-com:datatypes""><Description dt:dt=""string"">E-Prime Primary Realtime Clock</Description><StartTime><Timestamp dt:dt=""int"">0</Timestamp><DateUtc dt:dt=""string"">2023-07-18T09:06:15Z</DateUtc></StartTime><FrequencyChanges><FrequencyChange><Frequency dt:dt=""r8"">3312841</Frequency><Timestamp dt:dt=""r8"">25298006776</Timestamp><Current dt:dt=""r8"">0</Current><DateUtc dt:dt=""string"">2023-07-18T09:06:15Z</DateUtc></FrequencyChange></FrequencyChanges></Clock>\n";TMS_Ibrahim-58-1;75.028;1.0.0.561;1;;-471126863;2.0.10.242;2.0.10.242;07-18-2023;18/07/2023 09:06;11:06:16;2.0.10.147;0;;-999999;25;29895;0;1;3489;33384;1;1;1;2;1;1;1;BlockProcFischi;BlockList;1;150;0;;-999999;33;36218;0;1;1333;37551;1;1;1;1;ProcFischi1;ListBlockFischi;24;1;2;0;0;5;Pr3_B;200;1;op;5;2;12;1;24;1;0;TrialProc;651;725;Pr3_B;84;1640;1724;ListFischi1;0;;2;203;216678;9;15;1662;218340;238;1;1662;1;963;425;1424;1;1
TMS_Ibrahim;58;1;"<?xml version=""1.0""?>\n<Clock xmlns:dt=""urn:schemas-microsoft-com:datatypes""><Description dt:dt=""string"">E-Prime Primary Realtime Clock</Description><StartTime><Timestamp dt:dt=""int"">0</Timestamp><DateUtc dt:dt=""string"">2023-07-18T09:06:15Z</DateUtc></StartTime><FrequencyChanges><FrequencyChange><Frequency dt:dt=""r8"">3312841</Frequency><Timestamp dt:dt=""r8"">25298006776</Timestamp><Current dt:dt=""r8"">0</Current><DateUtc dt:dt=""string"">2023-07-18T09:06:15Z</DateUtc></FrequencyChange></FrequencyChanges></Clock>\n";TMS_Ibrahim-58-1;75.028;1.0.0.561;1;;-471126863;2.0.10.242;2.0.10.242;07-18-2023;18/07/2023 09:06;11:06:16;2.0.10.147;0;;-999999;25;29895;0;1;3489;33384;1;1;1;2;1;1;1;BlockProcFischi;BlockList;1;150;0;;-999999;33;36218;0;1;1333;37551;1;1;1;1;ProcFischi1;ListBlockFischi;25;1;2;0;0;5;Pr2_B;175;1;op;5;2;6;1;25;1;0;TrialProc;822;728;Pr2_B;239;1500;1261;ListFischi1;0;;3;201;223924;14;15;1536;225460;384;1;1536;1;956;351;1152;1;1
TMS_Ibrahim;58;1;"<?xml version=""1.0""?>\n<Clock xmlns:dt=""urn:schemas-microsoft-com:datatypes""><Description dt:dt=""string"">E-Prime Primary Realtime Clock</Description><StartTime><Timestamp dt:dt=""int"">0</Timestamp><DateUtc dt:dt=""string"">2023-07-18T09:06:15Z</DateUtc></StartTime><FrequencyChanges><FrequencyChange><Frequency dt:dt=""r8"">3312841</Frequency><Timestamp dt:dt=""r8"">25298006776</Timestamp><Current dt:dt=""r8"">0</Current><DateUtc dt:dt=""string"">2023-07-18T09:06:15Z</DateUtc></FrequencyChange></FrequencyChanges></Clock>\n";TMS_Ibrahim-58-1;75.028;1.0.0.561;1;;-471126863;2.0.10.242;2.0.10.242;07-18-2023;18/07/2023 09:06;11:06:16;2.0.10.147;0;;-999999;25;29895;0;1;3489;33384;1;1;1;2;1;1;1;BlockProcFischi;BlockList;1;150;0;;-999999;33;36218;0;1;1333;37551;1;1;1;1;ProcFischi1;ListBlockFischi;26;1;1;0;0;3;Po4_B;175;2;op;3;2;35;1;26;2;0;TrialProc;707;1358;Po4_B;251;1982;1732;ListFischi1;0;;2;203;232104;17;13;2012;234116;828;1;2012;1;369;209;1184;1;1
TMS_Ibrahim;58;1;"<?xml version=""1.0""?>\n<Clock xmlns:dt=""urn:schemas-microsoft-com:datatypes""><Description dt:dt=""string"">E-Prime Primary Realtime Clock</Description><StartTime><Timestamp dt:dt=""int"">0</Timestamp><DateUtc dt:dt=""string"">2023-07-18T09:06:15Z</DateUtc></StartTime><FrequencyChanges><FrequencyChange><Frequency dt:dt=""r8"">3312841</Frequency><Timestamp dt:dt=""r8"">25298006776</Timestamp><Current dt:dt=""r8"">0</Current><DateUtc dt:dt=""string"">2023-07-18T09:06:15Z</DateUtc></FrequencyChange></FrequencyChanges></Clock>\n";TMS_Ibrahim-58-1;75.028;1.0.0.561;1;;-471126863;2.0.10.242;2.0.10.242;07-18-2023;18/07/2023 09:06;11:06:16;2.0.10.147;0;;-999999;25;29895;0;1;3489;33384;1;1;1;2;1;1;1;BlockProcFischi;BlockList;1;150;0;;-999999;33;36218;0;1;1333;37551;1;1;1;1;ProcFischi1;ListBlockFischi;27;1;1;0;1;3;Po2_B;175;2;op;3;2;38;1;27;2;0;TrialProc;674;1591;Po2_B;15;1834;1818;ListFischi1;0;;2;203;240575;10;13;1861;242436;1269;1;1861;1;607;337;592;1;1
TMS_Ibrahim;58;1;"<?xml version=""1.0""?>\n<Clock xmlns:dt=""urn:schemas-microsoft-com:datatypes""><Description dt:dt=""string"">E-Prime Primary Realtime Clock</Description><StartTime><Timestamp dt:dt=""int"">0</Timestamp><DateUtc dt:dt=""string"">2023-07-18T09:06:15Z</DateUtc></StartTime><FrequencyChanges><FrequencyChange><Frequency dt:dt=""r8"">3312841</Frequency><Timestamp dt:dt=""r8"">25298006776</Timestamp><Current dt:dt=""r8"">0</Current><DateUtc dt:dt=""string"">2023-07-18T09:06:15Z</DateUtc></FrequencyChange></FrequencyChanges></Clock>\n";TMS_Ibrahim-58-1;75.028;1.0.0.561;1;;-471126863;2.0.10.242;2.0.10.242;07-18-2023;18/07/2023 09:06;11:06:16;2.0.10.147;0;;-999999;25;29895;0;1;3489;33384;1;1;1;2;1;1;1;BlockProcFischi;BlockList;1;150;0;;-999999;33;36218;0;1;1333;37551;1;1;1;1;ProcFischi1;ListBlockFischi;28;1;1;0;0;3;Po5_B;150;2;op;3;2;36;1;28;2;0;TrialProc;961;992;Po5_B;15;1501;1485;ListFischi1;0;;2;201;247998;10;13;1526;249524;360;1;1526;1;260;235;1166;1;1
TMS_Ibrahim;58;1;"<?xml version=""1.0""?>\n<Clock xmlns:dt=""urn:schemas-microsoft-com:datatypes""><Description dt:dt=""string"">E-Prime Primary Realtime Clock</Description><StartTime><Timestamp dt:dt=""int"">0</Timestamp><DateUtc dt:dt=""string"">2023-07-18T09:06:15Z</DateUtc></StartTime><FrequencyChanges><FrequencyChange><Frequency dt:dt=""r8"">3312841</Frequency><Timestamp dt:dt=""r8"">25298006776</Timestamp><Current dt:dt=""r8"">0</Current><DateUtc dt:dt=""string"">2023-07-18T09:06:15Z</DateUtc></FrequencyChange></FrequencyChanges></Clock>\n";TMS_Ibrahim-58-1;75.028;1.0.0.561;1;;-471126863;2.0.10.242;2.0.10.242;07-18-2023;18/07/2023 09:06;11:06:16;2.0.10.147;0;;-999999;25;29895;0;1;3489;33384;1;1;1;2;1;1;1;BlockProcFischi;BlockList;1;150;0;;-999999;33;36218;0;1;1333;37551;1;1;1;1;ProcFischi1;ListBlockFischi;29;1;2;0;0;3;Pr5_B;175;3;ug;3;2;20;1;29;3;1;TrialProc;728;689;Pr5_B;328;1616;1289;ListFischi1;0;;2;203;255406;13;133;2501;257907;245;1;1637;1;837;269;1392;1;1
TMS_Ibrahim;58;1;"<?xml version=""1.0""?>\n<Clock xmlns:dt=""urn:schemas-microsoft-com:datatypes""><Description dt:dt=""string"">E-Prime Primary Realtime Clock</Description><StartTime><Timestamp dt:dt=""int"">0</Timestamp><DateUtc dt:dt=""string"">2023-07-18T09:06:15Z</DateUtc></StartTime><FrequencyChanges><FrequencyChange><Frequency dt:dt=""r8"">3312841</Frequency><Timestamp dt:dt=""r8"">25298006776</Timestamp><Current dt:dt=""r8"">0</Current><DateUtc dt:dt=""string"">2023-07-18T09:06:15Z</DateUtc></FrequencyChange></FrequencyChanges></Clock>\n";TMS_Ibrahim-58-1;75.028;1.0.0.561;1;;-471126863;2.0.10.242;2.0.10.242;07-18-2023;18/07/2023 09:06;11:06:16;2.0.10.147;0;;-999999;25;29895;0;1;3489;33384;1;1;1;2;1;1;1;BlockProcFischi;BlockList;1;150;0;;-999999;33;36218;0;1;1333;37551;1;1;1;1;ProcFischi1;ListBlockFischi;30;1;1;0;0;3;Po2_B;125;2;op;3;2;33;1;30;2;0;TrialProc;482;6000;Po2_B;5;6000;6000;ListFischi1;0;;3;201;261365;12;13;1854;263219;398;1;1854;1;1508;206;1456;1;1
TMS_Ibrahim;58;1;"<?xml version=""1.0""?>\n<Clock xmlns:dt=""urn:schemas-microsoft-com:datatypes""><Description dt:dt=""string"">E-Prime Primary Realtime Clock</Description><StartTime><Timestamp dt:dt=""int"">0</Timestamp><DateUtc dt:dt=""string"">2023-07-18T09:06:15Z</DateUtc></StartTime><FrequencyChanges><FrequencyChange><Frequency dt:dt=""r8"">3312841</Frequency><Timestamp dt:dt=""r8"">25298006776</Timestamp><Current dt:dt=""r8"">0</Current><DateUtc dt:dt=""string"">2023-07-18T09:06:15Z</DateUtc></FrequencyChange></FrequencyChanges></Clock>\n";TMS_Ibrahim-58-1;75.028;1.0.0.561;1;;-471126863;2.0.10.242;2.0.10.242;07-18-2023;18/07/2023 09:06;11:06:16;2.0.10.147;0;;-999999;25;29895;0;1;3489;33384;1;1;1;2;1;1;1;BlockProcFischi;BlockList;1;150;0;;-999999;33;36218;0;1;1333;37551;1;1;1;1;ProcFischi1;ListBlockFischi;31;1;1;0;0;3;Po2_B;100;2;op;3;2;43;1;31;2;0;TrialProc;572;1590;Po2_B;14;1830;1816;ListFischi1;0;;2;203;268526;8;1333;2981;271507;422;1;1861;1;697;271;1439;1;1
TMS_Ibrahim;58;1;"<?xml version=""1.0""?>\n<Clock xmlns:dt=""urn:schemas-microsoft-com:datatypes""><Description dt:dt=""string"">E-Prime Primary Realtime Clock</Description><StartTime><Timestamp dt:dt=""int"">0</Timestamp><DateUtc dt:dt=""string"">2023-07-18T09:06:15Z</DateUtc></StartTime><FrequencyChanges><FrequencyChange><Frequency dt:dt=""r8"">3312841</Frequency><Timestamp dt:dt=""r8"">25298006776</Timestamp><Current dt:dt=""r8"">0</Current><DateUtc dt:dt=""string"">2023-07-18T09:06:15Z</DateUtc></FrequencyChange></FrequencyChanges></Clock>\n";TMS_Ibrahim-58-1;75.028;1.0.0.561;1;;-471126863;2.0.10.242;2.0.10.242;07-18-2023;18/07/2023 09:06;11:06:16;2.0.10.147;0;;-999999;25;29895;0;1;3489;33384;1;1;1;2;1;1;1;BlockProcFischi;BlockList;1;150;0;;-999999;33;36218;0;1;1333;37551;1;1;1;1;ProcFischi1;ListBlockFischi;32;1;2;0;1;3;Pr2_B;175;3;ug;3;2;22;1;32;3;1;TrialProc;603;730;Pr2_B;352;1614;1263;ListFischi1;0;;3;201;274623;15;13;1636;276259;420;1;1636;1;494;480;1216;1;1
TMS_Ibrahim;58;1;"<?xml version=""1.0""?>\n<Clock xmlns:dt=""urn:schemas-microsoft-com:datatypes""><Description dt:dt=""string"">E-Prime Primary Realtime Clock</Description><StartTime><Timestamp dt:dt=""int"">0</Timestamp><DateUtc dt:dt=""string"">2023-07-18T09:06:15Z</DateUtc></StartTime><FrequencyChanges><FrequencyChange><Frequency dt:dt=""r8"">3312841</Frequency><Timestamp dt:dt=""r8"">25298006776</Timestamp><Current dt:dt=""r8"">0</Current><DateUtc dt:dt=""string"">2023-07-18T09:06:15Z</DateUtc></FrequencyChange></FrequencyChanges></Clock>\n";TMS_Ibrahim-58-1;75.028;1.0.0.561;1;;-471126863;2.0.10.242;2.0.10.242;07-18-2023;18/07/2023 09:06;11:06:16;2.0.10.147;0;;-999999;25;29895;0;1;3489;33384;1;1;1;2;1;1;1;BlockProcFischi;BlockList;1;150;0;;-999999;33;36218;0;1;1333;37551;1;1;1;1;ProcFischi1;ListBlockFischi;33;1;2;0;1;5;Pr5_B;175;1;op;5;2;14;1;33;1;0;TrialProc;506;687;Pr5_B;291;1578;1286;ListFischi1;0;;2;203;281570;12;15;1601;283171;353;1;1601;1;427;206;1248;1;1
TMS_Ibrahim;58;1;"<?xml version=""1.0""?>\n<Clock xmlns:dt=""urn:schemas-microsoft-com:datatypes""><Description dt:dt=""string"">E-Prime Primary Realtime Clock</Description><StartTime><Timestamp dt:dt=""int"">0</Timestamp><DateUtc dt:dt=""string"">2023-07-18T09:06:15Z</DateUtc></StartTime><FrequencyChanges><FrequencyChange><Frequency dt:dt=""r8"">3312841</Frequency><Timestamp dt:dt=""r8"">25298006776</Timestamp><Current dt:dt=""r8"">0</Current><DateUtc dt:dt=""string"">2023-07-18T09:06:15Z</DateUtc></FrequencyChange></FrequencyChanges></Clock>\n";TMS_Ibrahim-58-1;75.028;1.0.0.561;1;;-471126863;2.0.10.242;2.0.10.242;07-18-2023;18/07/2023 09:06;11:06:16;2.0.10.147;0;;-999999;25;29895;0;1;3489;33384;1;1;1;2;1;1;1;BlockProcFischi;BlockList;1;150;0;;-999999;33;36218;0;1;1333;37551;1;1;1;1;ProcFischi1;ListBlockFischi;34;1;1;0;0;3;Po4_B;75;2;op;3;2;45;1;34;2;0;TrialProc;754;1351;Po4_B;206;1518;1724;ListFischi1;0;;2;203;290503;9;13;1548;292051;124;1;1548;1;409;233;1424;1;1
TMS_Ibrahim;58;1;"<?xml version=""1.0""?>\n<Clock xmlns:dt=""urn:schemas-microsoft-com:datatypes""><Description dt:dt=""string"">E-Prime Primary Realtime Clock</Description><StartTime><Timestamp dt:dt=""int"">0</Timestamp><DateUtc dt:dt=""string"">2023-07-18T09:06:15Z</DateUtc></StartTime><FrequencyChanges><FrequencyChange><Frequency dt:dt=""r8"">3312841</Frequency><Timestamp dt:dt=""r8"">25298006776</Timestamp><Current dt:dt=""r8"">0</Current><DateUtc dt:dt=""string"">2023-07-18T09:06:15Z</DateUtc></FrequencyChange></FrequencyChanges></Clock>\n";TMS_Ibrahim-58-1;75.028;1.0.0.561;1;;-471126863;2.0.10.242;2.0.10.242;07-18-2023;18/07/2023 09:06;11:06:16;2.0.10.147;0;;-999999;25;29895;0;1;3489;33384;1;1;1;2;1;1;1;BlockProcFischi;BlockList;1;150;0;;-999999;33;36218;0;1;1333;37551;1;1;1;1;ProcFischi1;ListBlockFischi;35;1;2;0;2;3;Pr3_B;175;3;ug;3;2;23;1;35;3;1;TrialProc;863;729;Pr3_B;51;1677;1728;ListFischi1;0;;2;203;298484;12;133;2126;300610;654;1;1710;1;264;512;1056;1;1
TMS_Ibrahim;58;1;"<?xml version=""1.0""?>\n<Clock xmlns:dt=""urn:schemas-microsoft-com:datatypes""><Description dt:dt=""string"">E-Prime Primary Realtime Clock</Description><StartTime><Timestamp dt:dt=""int"">0</Timestamp><DateUtc dt:dt=""string"">2023-07-18T09:06:15Z</DateUtc></StartTime><FrequencyChanges><FrequencyChange><Frequency dt:dt=""r8"">3312841</Frequency><Timestamp dt:dt=""r8"">25298006776</Timestamp><Current dt:dt=""r8"">0</Current><DateUtc dt:dt=""string"">2023-07-18T09:06:15Z</DateUtc></FrequencyChange></FrequencyChanges></Clock>\n";TMS_Ibrahim-58-1;75.028;1.0.0.561;1;;-471126863;2.0.10.242;2.0.10.242;07-18-2023;18/07/2023 09:06;11:06:16;2.0.10.147;0;;-999999;25;29895;0;1;3489;33384;1;1;1;2;1;1;1;BlockProcFischi;BlockList;1;150;0;;-999999;33;36218;0;1;1333;37551;1;1;1;1;ProcFischi1;ListBlockFischi;36;1;2;0;2;5;Pr3_B;175;1;op;5;2;7;1;36;1;0;TrialProc;566;730;Pr3_B;67;1797;1730;ListFischi1;0;;2;201;305905;15;15;1825;307730;369;1;1825;1;567;588;1456;1;1
TMS_Ibrahim;58;1;"<?xml version=""1.0""?>\n<Clock xmlns:dt=""urn:schemas-microsoft-com:datatypes""><Description dt:dt=""string"">E-Prime Primary Realtime Clock</Description><StartTime><Timestamp dt:dt=""int"">0</Timestamp><DateUtc dt:dt=""string"">2023-07-18T09:06:15Z</DateUtc></StartTime><FrequencyChanges><FrequencyChange><Frequency dt:dt=""r8"">3312841</Frequency><Timestamp dt:dt=""r8"">25298006776</Timestamp><Current dt:dt=""r8"">0</Current><DateUtc dt:dt=""string"">2023-07-18T09:06:15Z</DateUtc></FrequencyChange></FrequencyChanges></Clock>\n";TMS_Ibrahim-58-1;75.028;1.0.0.561;1;;-471126863;2.0.10.242;2.0.10.242;07-18-2023;18/07/2023 09:06;11:06:16;2.0.10.147;0;;-999999;25;29895;0;1;3489;33384;1;1;1;2;1;1;1;BlockProcFischi;BlockList;1;150;0;;-999999;33;36218;0;1;1333;37551;1;1;1;1;ProcFischi1;ListBlockFischi;37;1;2;0;0;5;Pr5_B;150;1;op;5;2;9;1;37;1;0;TrialProc;736;685;Pr5_B;376;1662;1285;ListFischi1;0;;2;203;313561;9;15;1689;315250;425;1;1689;1;504;471;1264;1;1
TMS_Ibrahim;58;1;"<?xml version=""1.0""?>\n<Clock xmlns:dt=""urn:schemas-microsoft-com:datatypes""><Description dt:dt=""string"">E-Prime Primary Realtime Clock</Description><StartTime><Timestamp dt:dt=""int"">0</Timestamp><DateUtc dt:dt=""string"">2023-07-18T09:06:15Z</DateUtc></StartTime><FrequencyChanges><FrequencyChange><Frequency dt:dt=""r8"">3312841</Frequency><Timestamp dt:dt=""r8"">25298006776</Timestamp><Current dt:dt=""r8"">0</Current><DateUtc dt:dt=""string"">2023-07-18T09:06:15Z</DateUtc></FrequencyChange></FrequencyChanges></Clock>\n";TMS_Ibrahim-58-1;75.028;1.0.0.561;1;;-471126863;2.0.10.242;2.0.10.242;07-18-2023;18/07/2023 09:06;11:06:16;2.0.10.147;0;;-999999;25;29895;0;1;3489;33384;1;1;1;2;1;1;1;BlockProcFischi;BlockList;1;150;0;;-999999;33;36218;0;1;1333;37551;1;1;1;1;ProcFischi1;ListBlockFischi;38;1;2;1;1;5;Prmod_B;150;1;op;5;2;16;1;38;1;0;TrialProc;888;1333;Prmod_B;336;2002;1665;ListFischi1;0;;3;201;320217;17;15;2025;322242;281;1;2025;1;462;581;1744;1;1
TMS_Ibrahim;58;1;"<?xml version=""1.0""?>\n<Clock xmlns:dt=""urn:schemas-microsoft-com:datatypes""><Description dt:dt=""string"">E-Prime Primary Realtime Clock</Description><StartTime><Timestamp dt:dt=""int"">0</Timestamp><DateUtc dt:dt=""string"">2023-07-18T09:06:15Z</DateUtc></StartTime><FrequencyChanges><FrequencyChange><Frequency dt:dt=""r8"">3312841</Frequency><Timestamp dt:dt=""r8"">25298006776</Timestamp><Current dt:dt=""r8"">0</Current><DateUtc dt:dt=""string"">2023-07-18T09:06:15Z</DateUtc></FrequencyChange></FrequencyChanges></Clock>\n";TMS_Ibrahim-58-1;75.028;1.0.0.561;1;;-471126863;2.0.10.242;2.0.10.242;07-18-2023;18/07/2023 09:06;11:06:16;2.0.10.147;0;;-999999;25;29895;0;1;3489;33384;1;1;1;2;1;1;1;BlockProcFischi;BlockList;1;150;0;;-999999;33;36218;0;1;1333;37551;1;1;1;1;ProcFischi1;ListBlockFischi;39;1;1;0;0;5;Po5_B;100;4;ug;5;2;52;1;39;4;1;TrialProc;748;992;Po5_B;88;1572;1485;ListFischi1;0;;2;203;327103;9;155;1875;328978;355;1;1603;1;396;344;1248;1;1
TMS_Ibrahim;58;1;"<?xml version=""1.0""?>\n<Clock xmlns:dt=""urn:schemas-microsoft-com:datatypes""><Description dt:dt=""string"">E-Prime Primary Realtime Clock</Description><StartTime><Timestamp dt:dt=""int"">0</Timestamp><DateUtc dt:dt=""string"">2023-07-18T09:06:15Z</DateUtc></StartTime><FrequencyChanges><FrequencyChange><Frequency dt:dt=""r8"">3312841</Frequency><Timestamp dt:dt=""r8"">25298006776</Timestamp><Current dt:dt=""r8"">0</Current><DateUtc dt:dt=""string"">2023-07-18T09:06:15Z</DateUtc></FrequencyChange></FrequencyChanges></Clock>\n";TMS_Ibrahim-58-1;75.028;1.0.0.561;1;;-471126863;2.0.10.242;2.0.10.242;07-18-2023;18/07/2023 09:06;11:06:16;2.0.10.147;0;;-999999;25;29895;0;1;3489;33384;1;1;1;2;1;1;1;BlockProcFischi;BlockList;1;150;0;;-999999;33;36218;0;1;1333;37551;1;1;1;1;ProcFischi1;ListBlockFischi;40;1;2;0;0;3;Pr2_B;150;3;ug;3;2;17;1;40;3;1;TrialProc;565;733;Pr2_B;124;1390;1266;ListFischi1;0;;2;203;337238;16;133;2139;339377;380;1;1419;1;526;500;1039;1;1
TMS_Ibrahim;58;1;"<?xml version=""1.0""?>\n<Clock xmlns:dt=""urn:schemas-microsoft-com:datatypes""><Description dt:dt=""string"">E-Prime Primary Realtime Clock</Description><StartTime><Timestamp dt:dt=""int"">0</Timestamp><DateUtc dt:dt=""string"">2023-07-18T09:06:15Z</DateUtc></StartTime><FrequencyChanges><FrequencyChange><Frequency dt:dt=""r8"">3312841</Frequency><Timestamp dt:dt=""r8"">25298006776</Timestamp><Current dt:dt=""r8"">0</Current><DateUtc dt:dt=""string"">2023-07-18T09:06:15Z</DateUtc></FrequencyChange></FrequencyChanges></Clock>\n";TMS_Ibrahim-58-1;75.028;1.0.0.561;1;;-471126863;2.0.10.242;2.0.10.242;07-18-2023;18/07/2023 09:06;11:06:16;2.0.10.147;0;;-999999;25;29895;0;1;3489;33384;1;1;1;2;1;1;1;BlockProcFischi;BlockList;1;150;0;;-999999;33;36218;0;1;1333;37551;1;1;1;1;ProcFischi1;ListBlockFischi;41;1;2;0;2;5;Pr8_B;150;1;op;5;2;10;1;41;1;0;TrialProc;830;731;Pr8_B;80;1838;1758;ListFischi1;0;;2;203;345610;14;15;1863;347473;696;1;1863;1;286;462;1167;1;1
TMS_Ibrahim;58;1;"<?xml version=""1.0""?>\n<Clock xmlns:dt=""urn:schemas-microsoft-com:datatypes""><Description dt:dt=""string"">E-Prime Primary Realtime Clock</Description><StartTime><Timestamp dt:dt=""int"">0</Timestamp><DateUtc dt:dt=""string"">2023-07-18T09:06:15Z</DateUtc></StartTime><FrequencyChanges><FrequencyChange><Frequency dt:dt=""r8"">3312841</Frequency><Timestamp dt:dt=""r8"">25298006776</Timestamp><Current dt:dt=""r8"">0</Current><DateUtc dt:dt=""string"">2023-07-18T09:06:15Z</DateUtc></FrequencyChange></FrequencyChanges></Clock>\n";TMS_Ibrahim-58-1;75.028;1.0.0.561;1;;-471126863;2.0.10.242;2.0.10.242;07-18-2023;18/07/2023 09:06;11:06:16;2.0.10.147;0;;-999999;25;29895;0;1;3489;33384;1;1;1;2;1;1;1;BlockProcFischi;BlockList;1;150;0;;-999999;33;36218;0;1;1333;37551;1;1;1;1;ProcFischi1;ListBlockFischi;42;1;1;0;0;5;Po2_B;100;4;ug;5;2;49;1;42;4;1;TrialProc;886;1590;Po2_B;94;1723;1817;ListFischi1;0;;3;201;352680;9;15;1753;354433;265;1;1753;1;970;410;1488;1;1
TMS_Ibrahim;58;1;"<?xml version=""1.0""?>\n<Clock xmlns:dt=""urn:schemas-microsoft-com:datatypes""><Description dt:dt=""string"">E-Prime Primary Realtime Clock</Description><StartTime><Timestamp dt:dt=""int"">0</Timestamp><DateUtc dt:dt=""string"">2023-07-18T09:06:15Z</DateUtc></StartTime><FrequencyChanges><FrequencyChange><Frequency dt:dt=""r8"">3312841</Frequency><Timestamp dt:dt=""r8"">25298006776</Timestamp><Current dt:dt=""r8"">0</Current><DateUtc dt:dt=""string"">2023-07-18T09:06:15Z</DateUtc></FrequencyChange></FrequencyChanges></Clock>\n";TMS_Ibrahim-58-1;75.028;1.0.0.561;1;;-471126863;2.0.10.242;2.0.10.242;07-18-2023;18/07/2023 09:06;11:06:16;2.0.10.147;0;;-999999;25;29895;0;1;3489;33384;1;1;1;2;1;1;1;BlockProcFischi;BlockList;1;150;0;;-999999;33;36218;0;1;1333;37551;1;1;1;1;ProcFischi1;ListBlockFischi;43;1;2;0;0;3;Pr4_B;125;3;ug;3;2;19;1;43;3;1;TrialProc;1009;692;Pr4_B;197;1461;1264;ListFischi1;0;;2;203;359896;16;13;1497;361393;329;1;1497;1;377;238;1168;1;1
TMS_Ibrahim;58;1;"<?xml version=""1.0""?>\n<Clock xmlns:dt=""urn:schemas-microsoft-com:datatypes""><Description dt:dt=""string"">E-Prime Primary Realtime Clock</Description><StartTime><Timestamp dt:dt=""int"">0</Timestamp><DateUtc dt:dt=""string"">2023-07-18T09:06:15Z</DateUtc></StartTime><FrequencyChanges><FrequencyChange><Frequency dt:dt=""r8"">3312841</Frequency><Timestamp dt:dt=""r8"">25298006776</Timestamp><Current dt:dt=""r8"">0</Current><DateUtc dt:dt=""string"">2023-07-18T09:06:15Z</DateUtc></FrequencyChange></FrequencyChanges></Clock>\n";TMS_Ibrahim-58-1;75.028;1.0.0.561;1;;-471126863;2.0.10.242;2.0.10.242;07-18-2023;18/07/2023 09:06;11:06:16;2.0.10.147;0;;-999999;25;29895;0;1;3489;33384;1;1;1;2;1;1;1;BlockProcFischi;BlockList;1;150;0;;-999999;33;36218;0;1;1333;37551;1;1;1;1;ProcFischi1;ListBlockFischi;44;1;1;0;0;5;Po4_B;100;4;ug;5;2;56;1;44;4;1;TrialProc;569;1349;Po4_B;90;1631;1722;ListFischi1;0;;3;201;367221;9;15;1660;368881;204;1;1660;1;168;448;1456;1;1
TMS_Ibrahim;58;1;"<?xml version=""1.0""?>\n<Clock xmlns:dt=""urn:schemas-microsoft-com:datatypes""><Description dt:dt=""string"">E-Prime Primary Realtime Clock</Description><StartTime><Timestamp dt:dt=""int"">0</Timestamp><DateUtc dt:dt=""string"">2023-07-18T09:06:15Z</DateUtc></StartTime><FrequencyChanges><FrequencyChange><Frequency dt:dt=""r8"">3312841</Frequency><Timestamp dt:dt=""r8"">25298006776</Timestamp><Current dt:dt=""r8"">0</Current><DateUtc dt:dt=""string"">2023-07-18T09:06:15Z</DateUtc></FrequencyChange></FrequencyChanges></Clock>\n";TMS_Ibrahim-58-1;75.028;1.0.0.561;1;;-471126863;2.0.10.242;2.0.10.242;07-18-2023;18/07/2023 09:06;11:06:16;2.0.10.147;0;;-999999;25;29895;0;1;3489;33384;1;1;1;2;1;1;1;BlockProcFischi;BlockList;1;150;0;;-999999;33;36218;0;1;1333;37551;1;1;1;1;ProcFischi1;ListBlockFischi;45;1;1;0;0;5;Po5_B;100;4;ug;5;2;57;1;45;4;1;TrialProc;779;995;Po5_B;46;1534;1488;ListFischi1;0;;2;203;375015;12;15;1562;376577;506;1;1562;1;454;376;1056;1;1
TMS_Ibrahim;58;1;"<?xml version=""1.0""?>\n<Clock xmlns:dt=""urn:schemas-microsoft-com:datatypes""><Description dt:dt=""string"">E-Prime Primary Realtime Clock</Description><StartTime><Timestamp dt:dt=""int"">0</Timestamp><DateUtc dt:dt=""string"">2023-07-18T09:06:15Z</DateUtc></StartTime><FrequencyChanges><FrequencyChange><Frequency dt:dt=""r8"">3312841</Frequency><Timestamp dt:dt=""r8"">25298006776</Timestamp><Current dt:dt=""r8"">0</Current><DateUtc dt:dt=""string"">2023-07-18T09:06:15Z</DateUtc></FrequencyChange></FrequencyChanges></Clock>\n";TMS_Ibrahim-58-1;75.028;1.0.0.561;1;;-471126863;2.0.10.242;2.0.10.242;07-18-2023;18/07/2023 09:06;11:06:16;2.0.10.147;0;;-999999;25;29895;0;1;3489;33384;1;1;1;2;1;1;1;BlockProcFischi;BlockList;1;150;0;;-999999;33;36218;0;1;1333;37551;1;1;1;1;ProcFischi1;ListBlockFischi;46;1;2;0;1;3;Pr4_B;125;3;ug;3;2;24;1;46;3;1;TrialProc;972;693;Pr4_B;151;1415;1265;ListFischi1;0;;3;201;381993;18;133;2055;384048;407;1;1447;1;557;481;1040;1;1
TMS_Ibrahim;58;1;"<?xml version=""1.0""?>\n<Clock xmlns:dt=""urn:schemas-microsoft-com:datatypes""><Description dt:dt=""string"">E-Prime Primary Realtime Clock</Description><StartTime><Timestamp dt:dt=""int"">0</Timestamp><DateUtc dt:dt=""string"">2023-07-18T09:06:15Z</DateUtc></StartTime><FrequencyChanges><FrequencyChange><Frequency dt:dt=""r8"">3312841</Frequency><Timestamp dt:dt=""r8"">25298006776</Timestamp><Current dt:dt=""r8"">0</Current><DateUtc dt:dt=""string"">2023-07-18T09:06:15Z</DateUtc></FrequencyChange></FrequencyChanges></Clock>\n";TMS_Ibrahim-58-1;75.028;1.0.0.561;1;;-471126863;2.0.10.242;2.0.10.242;07-18-2023;18/07/2023 09:06;11:06:16;2.0.10.147;0;;-999999;25;29895;0;1;3489;33384;1;1;1;2;1;1;1;BlockProcFischi;BlockList;1;150;0;;-999999;33;36218;0;1;1333;37551;1;1;1;1;ProcFischi1;ListBlockFischi;47;1;2;0;0;5;Pr4_B;125;1;op;5;2;3;1;47;1;0;TrialProc;474;681;Pr4_B;289;1544;1256;ListFischi1;0;;2;203;388415;7;15;1569;389984;337;1;1569;1;705;378;1232;1;1
TMS_Ibrahim;58;1;"<?xml version=""1.0""?>\n<Clock xmlns:dt=""urn:schemas-microsoft-com:datatypes""><Description dt:dt=""string"">E-Prime Primary Realtime Clock</Description><StartTime><Timestamp dt:dt=""int"">0</Timestamp><DateUtc dt:dt=""string"">2023-07-18T09:06:15Z</DateUtc></StartTime><FrequencyChanges><FrequencyChange><Frequency dt:dt=""r8"">3312841</Frequency><Timestamp dt:dt=""r8"">25298006776</Timestamp><Current dt:dt=""r8"">0</Current><DateUtc dt:dt=""string"">2023-07-18T09:06:15Z</DateUtc></FrequencyChange></FrequencyChanges></Clock>\n";TMS_Ibrahim-58-1;75.028;1.0.0.561;1;;-471126863;2.0.10.242;2.0.10.242;07-18-2023;18/07/2023 09:06;11:06:16;2.0.10.147;0;;-999999;25;29895;0;1;3489;33384;1;1;1;2;1;1;1;BlockProcFischi;BlockList;1;150;0;;-999999;33;36218;0;1;1333;37551;1;1;1;1;ProcFischi1;ListBlockFischi;48;1;1;0;0;5;Po8_B;75;4;ug;5;2;58;1;48;4;1;TrialProc;607;1263;Po8_B;328;1924;1595;ListFischi1;0;;2;201;395219;13;15;1949;397168;654;1;1949;1;366;423;1295;1;1
TMS_Ibrahim;58;1;"<?xml version=""1.0""?>\n<Clock xmlns:dt=""urn:schemas-microsoft-com:datatypes""><Description dt:dt=""string"">E-Prime Primary Realtime Clock</Description><StartTime><Timestamp dt:dt=""int"">0</Timestamp><DateUtc dt:dt=""string"">2023-07-18T09:06:15Z</DateUtc></StartTime><FrequencyChanges><FrequencyChange><Frequency dt:dt=""r8"">3312841</Frequency><Timestamp dt:dt=""r8"">25298006776</Timestamp><Current dt:dt=""r8"">0</Current><DateUtc dt:dt=""string"">2023-07-18T09:06:15Z</DateUtc></FrequencyChange></FrequencyChanges></Clock>\n";TMS_Ibrahim-58-1;75.028;1.0.0.561;1;;-471126863;2.0.10.242;2.0.10.242;07-18-2023;18/07/2023 09:06;11:06:16;2.0.10.147;0;;-999999;25;29895;0;1;3489;33384;1;1;1;2;1;1;1;BlockProcFischi;BlockList;1;150;0;;-999999;33;36218;0;1;1333;37551;1;1;1;1;ProcFischi1;ListBlockFischi;49;1;1;0;1;3;Po8_B;75;2;op;3;2;42;1;49;2;0;TrialProc;578;1260;Po8_B;2;1592;1594;ListFischi1;0;;2;203;402404;12;133;2412;404816;364;1;1612;1;731;299;1248;1;1
TMS_Ibrahim;58;1;"<?xml version=""1.0""?>\n<Clock xmlns:dt=""urn:schemas-microsoft-com:datatypes""><Description dt:dt=""string"">E-Prime Primary Realtime Clock</Description><StartTime><Timestamp dt:dt=""int"">0</Timestamp><DateUtc dt:dt=""string"">2023-07-18T09:06:15Z</DateUtc></StartTime><FrequencyChanges><FrequencyChange><Frequency dt:dt=""r8"">3312841</Frequency><Timestamp dt:dt=""r8"">25298006776</Timestamp><Current dt:dt=""r8"">0</Current><DateUtc dt:dt=""string"">2023-07-18T09:06:15Z</DateUtc></FrequencyChange></FrequencyChanges></Clock>\n";TMS_Ibrahim-58-1;75.028;1.0.0.561;1;;-471126863;2.0.10.242;2.0.10.242;07-18-2023;18/07/2023 09:06;11:06:16;2.0.10.147;0;;-999999;25;29895;0;1;3489;33384;1;1;1;2;1;1;1;BlockProcFischi;BlockList;1;150;0;;-999999;33;36218;0;1;1333;37551;1;1;1;1;ProcFischi1;ListBlockFischi;50;1;2;0;1;5;Pr4_B;125;1;op;5;2;8;1;50;1;0;TrialProc;508;691;Pr4_B;197;1461;1265;ListFischi1;0;;2;201;408759;15;15;1481;410240;361;1;1481;1;255;282;1120;1;1
TMS_Ibrahim;58;1;"<?xml version=""1.0""?>\n<Clock xmlns:dt=""urn:schemas-microsoft-com:datatypes""><Description dt:dt=""string"">E-Prime Primary Realtime Clock</Description><StartTime><Timestamp dt:dt=""int"">0</Timestamp><DateUtc dt:dt=""string"">2023-07-18T09:06:15Z</DateUtc></StartTime><FrequencyChanges><FrequencyChange><Frequency dt:dt=""r8"">3312841</Frequency><Timestamp dt:dt=""r8"">25298006776</Timestamp><Current dt:dt=""r8"">0</Current><DateUtc dt:dt=""string"">2023-07-18T09:06:15Z</DateUtc></FrequencyChange></FrequencyChanges></Clock>\n";TMS_Ibrahim-58-1;75.028;1.0.0.561;1;;-471126863;2.0.10.242;2.0.10.242;07-18-2023;18/07/2023 09:06;11:06:16;2.0.10.147;0;;-999999;25;29895;0;1;3489;33384;1;1;1;2;1;1;1;BlockProcFischi;BlockList;1;150;0;;-999999;33;36218;0;1;1333;37551;1;1;1;1;ProcFischi1;ListBlockFischi;51;1;1;0;1;5;Po3_B;75;4;ug;5;2;55;1;51;4;1;TrialProc;571;1328;Po3_B;95;1500;1596;ListFischi1;0;;2;203;415945;13;15;1527;417472;359;1;1527;1;97;461;1168;1;1
TMS_Ibrahim;58;1;"<?xml version=""1.0""?>\n<Clock xmlns:dt=""urn:schemas-microsoft-com:datatypes""><Description dt:dt=""string"">E-Prime Primary Realtime Clock</Description><StartTime><Timestamp dt:dt=""int"">0</Timestamp><DateUtc dt:dt=""string"">2023-07-18T09:06:15Z</DateUtc></StartTime><FrequencyChanges><FrequencyChange><Frequency dt:dt=""r8"">3312841</Frequency><Timestamp dt:dt=""r8"">25298006776</Timestamp><Current dt:dt=""r8"">0</Current><DateUtc dt:dt=""string"">2023-07-18T09:06:15Z</DateUtc></FrequencyChange></FrequencyChanges></Clock>\n";TMS_Ibrahim-58-1;75.028;1.0.0.561;1;;-471126863;2.0.10.242;2.0.10.242;07-18-2023;18/07/2023 09:06;11:06:16;2.0.10.147;0;;-999999;25;29895;0;1;3489;33384;1;1;1;2;1;1;1;BlockProcFischi;BlockList;1;150;0;;-999999;33;36218;0;1;1333;37551;1;1;1;1;ProcFischi1;ListBlockFischi;52;1;2;0;2;5;Pr5_B;125;1;op;5;2;4;1;52;1;0;TrialProc;601;692;Pr5_B;168;1461;1293;ListFischi1;0;;3;201;423538;17;15;1485;425023;333;1;1485;1;326;317;1152;1;1
TMS_Ibrahim;58;1;"<?xml version=""1.0""?>\n<Clock xmlns:dt=""urn:schemas-microsoft-com:datatypes""><Description dt:dt=""string"">E-Prime Primary Realtime Clock</Description><StartTime><Timestamp dt:dt=""int"">0</Timestamp><DateUtc dt:dt=""string"">2023-07-18T09:06:15Z</DateUtc></StartTime><FrequencyChanges><FrequencyChange><Frequency dt:dt=""r8"">3312841</Frequency><Timestamp dt:dt=""r8"">25298006776</Timestamp><Current dt:dt=""r8"">0</Current><DateUtc dt:dt=""string"">2023-07-18T09:06:15Z</DateUtc></FrequencyChange></FrequencyChanges></Clock>\n";TMS_Ibrahim-58-1;75.028;1.0.0.561;1;;-471126863;2.0.10.242;2.0.10.242;07-18-2023;18/07/2023 09:06;11:06:16;2.0.10.147;0;;-999999;25;29895;0;1;3489;33384;1;1;1;2;1;1;1;BlockProcFischi;BlockList;1;150;0;;-999999;33;36218;0;1;1333;37551;1;1;1;1;ProcFischi1;ListBlockFischi;53;1;2;0;2;3;Pr8_B;125;3;ug;3;2;26;1;53;3;1;TrialProc;581;733;Pr8_B;145;1905;1759;ListFischi1;0;;2;203;430973;19;13;1938;432911;354;1;1938;1;384;517;1584;1;1
TMS_Ibrahim;58;1;"<?xml version=""1.0""?>\n<Clock xmlns:dt=""urn:schemas-microsoft-com:datatypes""><Description dt:dt=""string"">E-Prime Primary Realtime Clock</Description><StartTime><Timestamp dt:dt=""int"">0</Timestamp><DateUtc dt:dt=""string"">2023-07-18T09:06:15Z</DateUtc></StartTime><FrequencyChanges><FrequencyChange><Frequency dt:dt=""r8"">3312841</Frequency><Timestamp dt:dt=""r8"">25298006776</Timestamp><Current dt:dt=""r8"">0</Current><DateUtc dt:dt=""string"">2023-07-18T09:06:15Z</DateUtc></FrequencyChange></FrequencyChanges></Clock>\n";TMS_Ibrahim-58-1;75.028;1.0.0.561;1;;-471126863;2.0.10.242;2.0.10.242;07-18-2023;18/07/2023 09:06;11:06:16;2.0.10.147;0;;-999999;25;29895;0;1;3489;33384;1;1;1;2;1;1;1;BlockProcFischi;BlockList;1;150;0;;-999999;33;36218;0;1;1333;37551;1;1;1;1;ProcFischi1;ListBlockFischi;54;1;2;0;2;3;Pr5_B;125;3;ug;3;2;25;1;54;3;1;TrialProc;706;687;Pr5_B;304;1593;1288;ListFischi1;0;;3;201;437910;13;13;1625;439535;441;1;1625;1;802;383;1184;1;1
TMS_Ibrahim;58;1;"<?xml version=""1.0""?>\n<Clock xmlns:dt=""urn:schemas-microsoft-com:datatypes""><Description dt:dt=""string"">E-Prime Primary Realtime Clock</Description><StartTime><Timestamp dt:dt=""int"">0</Timestamp><DateUtc dt:dt=""string"">2023-07-18T09:06:15Z</DateUtc></StartTime><FrequencyChanges><FrequencyChange><Frequency dt:dt=""r8"">3312841</Frequency><Timestamp dt:dt=""r8"">25298006776</Timestamp><Current dt:dt=""r8"">0</Current><DateUtc dt:dt=""string"">2023-07-18T09:06:15Z</DateUtc></FrequencyChange></FrequencyChanges></Clock>\n";TMS_Ibrahim-58-1;75.028;1.0.0.561;1;;-471126863;2.0.10.242;2.0.10.242;07-18-2023;18/07/2023 09:06;11:06:16;2.0.10.147;0;;-999999;25;29895;0;1;3489;33384;1;1;1;2;1;1;1;BlockProcFischi;BlockList;1;150;0;;-999999;33;36218;0;1;1333;37551;1;1;1;1;ProcFischi1;ListBlockFischi;55;1;2;1;0;3;Prmod_B;150;3;ug;3;2;31;1;55;3;1;TrialProc;708;1328;Prmod_B;3;1657;1660;ListFischi1;0;;2;203;444642;11;13;1677;446319;301;1;1677;1;467;357;1376;1;1
TMS_Ibrahim;58;1;"<?xml version=""1.0""?>\n<Clock xmlns:dt=""urn:schemas-microsoft-com:datatypes""><Description dt:dt=""string"">E-Prime Primary Realtime Clock</Description><StartTime><Timestamp dt:dt=""int"">0</Timestamp><DateUtc dt:dt=""string"">2023-07-18T09:06:15Z</DateUtc></StartTime><FrequencyChanges><FrequencyChange><Frequency dt:dt=""r8"">3312841</Frequency><Timestamp dt:dt=""r8"">25298006776</Timestamp><Current dt:dt=""r8"">0</Current><DateUtc dt:dt=""string"">2023-07-18T09:06:15Z</DateUtc></FrequencyChange></FrequencyChanges></Clock>\n";TMS_Ibrahim-58-1;75.028;1.0.0.561;1;;-471126863;2.0.10.242;2.0.10.242;07-18-2023;18/07/2023 09:06;11:06:16;2.0.10.147;0;;-999999;25;29895;0;1;3489;33384;1;1;1;2;1;1;1;BlockProcFischi;BlockList;1;150;0;;-999999;33;36218;0;1;1333;37551;1;1;1;1;ProcFischi1;ListBlockFischi;56;1;1;1;1;5;Pomod_B;75;4;ug;5;2;64;1;56;4;1;TrialProc;786;1323;Pomod_B;250;1933;1683;ListFischi1;0;;3;201;452323;8;15;1964;454287;380;1;1964;1;650;387;1584;1;1
TMS_Ibrahim;58;1;"<?xml version=""1.0""?>\n<Clock xmlns:dt=""urn:schemas-microsoft-com:datatypes""><Description dt:dt=""string"">E-Prime Primary Realtime Clock</Description><StartTime><Timestamp dt:dt=""int"">0</Timestamp><DateUtc dt:dt=""string"">2023-07-18T09:06:15Z</DateUtc></StartTime><FrequencyChanges><FrequencyChange><Frequency dt:dt=""r8"">3312841</Frequency><Timestamp dt:dt=""r8"">25298006776</Timestamp><Current dt:dt=""r8"">0</Current><DateUtc dt:dt=""string"">2023-07-18T09:06:15Z</DateUtc></FrequencyChange></FrequencyChanges></Clock>\n";TMS_Ibrahim-58-1;75.028;1.0.0.561;1;;-471126863;2.0.10.242;2.0.10.242;07-18-2023;18/07/2023 09:06;11:06:16;2.0.10.147;0;;-999999;25;29895;0;1;3489;33384;1;1;1;2;1;1;1;BlockProcFischi;BlockList;1;150;0;;-999999;33;36218;0;1;1333;37551;1;1;1;1;ProcFischi1;ListBlockFischi;57;1;2;0;0;5;Pr8_B;150;1;op;5;2;5;1;57;1;0;TrialProc;621;730;Pr8_B;286;2043;1758;ListFischi1;0;;2;203;459539;15;15;2076;461615;492;1;2076;1;471;382;1584;1;1
TMS_Ibrahim;58;1;"<?xml version=""1.0""?>\n<Clock xmlns:dt=""urn:schemas-microsoft-com:datatypes""><Description dt:dt=""string"">E-Prime Primary Realtime Clock</Description><StartTime><Timestamp dt:dt=""int"">0</Timestamp><DateUtc dt:dt=""string"">2023-07-18T09:06:15Z</DateUtc></StartTime><FrequencyChanges><FrequencyChange><Frequency dt:dt=""r8"">3312841</Frequency><Timestamp dt:dt=""r8"">25298006776</Timestamp><Current dt:dt=""r8"">0</Current><DateUtc dt:dt=""string"">2023-07-18T09:06:15Z</DateUtc></FrequencyChange></FrequencyChanges></Clock>\n";TMS_Ibrahim-58-1;75.028;1.0.0.561;1;;-471126863;2.0.10.242;2.0.10.242;07-18-2023;18/07/2023 09:06;11:06:16;2.0.10.147;0;;-999999;25;29895;0;1;3489;33384;1;1;1;2;1;1;1;BlockProcFischi;BlockList;1;150;0;;-999999;33;36218;0;1;1333;37551;1;1;1;1;ProcFischi1;ListBlockFischi;58;1;1;0;0;3;Po3_B;50;2;op;3;2;44;1;58;2;0;TrialProc;684;1325;Po3_B;33;1558;1590;ListFischi1;0;;2;201;467117;8;13;1585;468702;402;1;1585;1;65;582;1183;1;1
TMS_Ibrahim;58;1;"<?xml version=""1.0""?>\n<Clock xmlns:dt=""urn:schemas-microsoft-com:datatypes""><Description dt:dt=""string"">E-Prime Primary Realtime Clock</Description><StartTime><Timestamp dt:dt=""int"">0</Timestamp><DateUtc dt:dt=""string"">2023-07-18T09:06:15Z</DateUtc></StartTime><FrequencyChanges><FrequencyChange><Frequency dt:dt=""r8"">3312841</Frequency><Timestamp dt:dt=""r8"">25298006776</Timestamp><Current dt:dt=""r8"">0</Current><DateUtc dt:dt=""string"">2023-07-18T09:06:15Z</DateUtc></FrequencyChange></FrequencyChanges></Clock>\n";TMS_Ibrahim-58-1;75.028;1.0.0.561;1;;-471126863;2.0.10.242;2.0.10.242;07-18-2023;18/07/2023 09:06;11:06:16;2.0.10.147;0;;-999999;25;29895;0;1;3489;33384;1;1;1;2;1;1;1;BlockProcFischi;BlockList;1;150;0;;-999999;33;36218;0;1;1333;37551;1;1;1;1;ProcFischi1;ListBlockFischi;59;1;1;0;0;3;Po4_B;50;2;op;3;2;40;1;59;2;0;TrialProc;490;1354;Po4_B;18;1746;1728;ListFischi1;0;;2;203;474430;12;13;1776;476206;481;1;1776;1;279;581;1295;1;1
TMS_Ibrahim;58;1;"<?xml version=""1.0""?>\n<Clock xmlns:dt=""urn:schemas-microsoft-com:datatypes""><Description dt:dt=""string"">E-Prime Primary Realtime Clock</Description><StartTime><Timestamp dt:dt=""int"">0</Timestamp><DateUtc dt:dt=""string"">2023-07-18T09:06:15Z</DateUtc></StartTime><FrequencyChanges><FrequencyChange><Frequency dt:dt=""r8"">3312841</Frequency><Timestamp dt:dt=""r8"">25298006776</Timestamp><Current dt:dt=""r8"">0</Current><DateUtc dt:dt=""string"">2023-07-18T09:06:15Z</DateUtc></FrequencyChange></FrequencyChanges></Clock>\n";TMS_Ibrahim-58-1;75.028;1.0.0.561;1;;-471126863;2.0.10.242;2.0.10.242;07-18-2023;18/07/2023 09:06;11:06:16;2.0.10.147;0;;-999999;25;29895;0;1;3489;33384;1;1;1;2;1;1;1;BlockProcFischi;BlockList;1;150;0;;-999999;33;36218;0;1;1333;37551;1;1;1;1;ProcFischi1;ListBlockFischi;60;1;2;0;0;3;Pr4_B;125;3;ug;3;2;29;1;60;3;1;TrialProc;688;690;Pr4_B;198;1462;1263;ListFischi1;0;;3;201;481665;14;13;1485;483150;365;1;1485;1;226;571;1120;1;1
TMS_Ibrahim;58;1;"<?xml version=""1.0""?>\n<Clock xmlns:dt=""urn:schemas-microsoft-com:datatypes""><Description dt:dt=""string"">E-Prime Primary Realtime Clock</Description><StartTime><Timestamp dt:dt=""int"">0</Timestamp><DateUtc dt:dt=""string"">2023-07-18T09:06:15Z</DateUtc></StartTime><FrequencyChanges><FrequencyChange><Frequency dt:dt=""r8"">3312841</Frequency><Timestamp dt:dt=""r8"">25298006776</Timestamp><Current dt:dt=""r8"">0</Current><DateUtc dt:dt=""string"">2023-07-18T09:06:15Z</DateUtc></FrequencyChange></FrequencyChanges></Clock>\n";TMS_Ibrahim-58-1;75.028;1.0.0.561;1;;-471126863;2.0.10.242;2.0.10.242;07-18-2023;18/07/2023 09:06;11:06:16;2.0.10.147;0;;-999999;25;29895;0;1;3489;33384;1;1;1;2;1;1;1;BlockProcFischi;BlockList;1;150;0;;-999999;33;36218;0;1;1333;37551;1;1;1;1;ProcFischi1;ListBlockFischi;61;1;1;0;2;5;Po4_B;75;4;ug;5;2;61;1;61;4;1;TrialProc;897;1348;Po4_B;108;1615;1722;ListFischi1;0;;2;203;488630;7;15;1640;490270;520;1;1640;1;1797;252;1120;1;1
TMS_Ibrahim;58;1;"<?xml version=""1.0""?>\n<Clock xmlns:dt=""urn:schemas-microsoft-com:datatypes""><Description dt:dt=""string"">E-Prime Primary Realtime Clock</Description><StartTime><Timestamp dt:dt=""int"">0</Timestamp><DateUtc dt:dt=""string"">2023-07-18T09:06:15Z</DateUtc></StartTime><FrequencyChanges><FrequencyChange><Frequency dt:dt=""r8"">3312841</Frequency><Timestamp dt:dt=""r8"">25298006776</Timestamp><Current dt:dt=""r8"">0</Current><DateUtc dt:dt=""string"">2023-07-18T09:06:15Z</DateUtc></FrequencyChange></FrequencyChanges></Clock>\n";TMS_Ibrahim-58-1;75.028;1.0.0.561;1;;-471126863;2.0.10.242;2.0.10.242;07-18-2023;18/07/2023 09:06;11:06:16;2.0.10.147;0;;-999999;25;29895;0;1;3489;33384;1;1;1;2;1;1;1;BlockProcFischi;BlockList;1;150;0;;-999999;33;36218;0;1;1333;37551;1;1;1;1;ProcFischi1;ListBlockFischi;62;1;2;1;1;3;Prmod_B;125;3;ug;3;2;32;1;62;3;1;TrialProc;666;1325;Prmod_B;198;1856;1657;ListFischi1;0;;1;202;495773;8;13;1889;497662;481;1;1889;1;524;296;1408;1;1
TMS_Ibrahim;58;1;"<?xml version=""1.0""?>\n<Clock xmlns:dt=""urn:schemas-microsoft-com:datatypes""><Description dt:dt=""string"">E-Prime Primary Realtime Clock</Description><StartTime><Timestamp dt:dt=""int"">0</Timestamp><DateUtc dt:dt=""string"">2023-07-18T09:06:15Z</DateUtc></StartTime><FrequencyChanges><FrequencyChange><Frequency dt:dt=""r8"">3312841</Frequency><Timestamp dt:dt=""r8"">25298006776</Timestamp><Current dt:dt=""r8"">0</Current><DateUtc dt:dt=""string"">2023-07-18T09:06:15Z</DateUtc></FrequencyChange></FrequencyChanges></Clock>\n";TMS_Ibrahim-58-1;75.028;1.0.0.561;1;;-471126863;2.0.10.242;2.0.10.242;07-18-2023;18/07/2023 09:06;11:06:16;2.0.10.147;0;;-999999;25;29895;0;1;3489;33384;1;1;1;2;1;1;1;BlockProcFischi;BlockList;1;150;0;;-999999;33;36218;0;1;1333;37551;1;1;1;1;ProcFischi1;ListBlockFischi;63;0;1;0;0;5;Po3_B;;4;ug;1;2;60;1;63;4;1;TrialProc;1475;1324;Po3_B;105;1695;1591;ListFischi1;0;;2;203;503209;9;15;1717;504926;453;1;1;1;75;448;-452;1;0
TMS_Ibrahim;58;1;"<?xml version=""1.0""?>\n<Clock xmlns:dt=""urn:schemas-microsoft-com:datatypes""><Description dt:dt=""string"">E-Prime Primary Realtime Clock</Description><StartTime><Timestamp dt:dt=""int"">0</Timestamp><DateUtc dt:dt=""string"">2023-07-18T09:06:15Z</DateUtc></StartTime><FrequencyChanges><FrequencyChange><Frequency dt:dt=""r8"">3312841</Frequency><Timestamp dt:dt=""r8"">25298006776</Timestamp><Current dt:dt=""r8"">0</Current><DateUtc dt:dt=""string"">2023-07-18T09:06:15Z</DateUtc></FrequencyChange></FrequencyChanges></Clock>\n";TMS_Ibrahim-58-1;75.028;1.0.0.561;1;;-471126863;2.0.10.242;2.0.10.242;07-18-2023;18/07/2023 09:06;11:06:16;2.0.10.147;0;;-999999;25;29895;0;1;3489;33384;1;1;1;2;1;1;1;BlockProcFischi;BlockList;1;150;0;;-999999;33;36218;0;1;1333;37551;1;1;1;1;ProcFischi1;ListBlockFischi;64;1;1;0;0;3;Po5_B;25;2;op;3;2;46;1;64;2;0;TrialProc;687;990;Po5_B;206;1689;1483;ListFischi1;0;;2;203;510221;8;13;1712;511933;496;1;1712;1;943;460;1216;1;1
TMS_Ibrahim;58;3;"<?xml version=""1.0""?>\n<Clock xmlns:dt=""urn:schemas-microsoft-com:datatypes""><Description dt:dt=""string"">E-Prime Primary Realtime Clock</Description><StartTime><Timestamp dt:dt=""int"">0</Timestamp><DateUtc dt:dt=""string"">2023-07-18T10:11:37Z</DateUtc></StartTime><FrequencyChanges><FrequencyChange><Frequency dt:dt=""r8"">3312841</Frequency><Timestamp dt:dt=""r8"">38290580815</Timestamp><Current dt:dt=""r8"">0</Current><DateUtc dt:dt=""string"">2023-07-18T10:11:37Z</DateUtc></FrequencyChange></FrequencyChanges></Clock>\n";TMS_Ibrahim-58-3;75.029;1.0.0.561;1;;-363481373;2.0.10.242;2.0.10.242;07-18-2023;18/07/2023 10:11;12:11:37;2.0.10.147;0;;-999999;20;10530;0;1;1573;12103;1;1;1;2;1;2;1;BlockProcFischi;BlockList;1;175;0;;-999999;13;14273;0;1;1838;16111;1;1;1;1;ProcFischi1;ListBlockFischi;1;1;2;0;0;3;Pr5_B;250;3;ug;3;2;30;1;1;3;1;TrialProc;1358;697;Pr5_B;542;1838;1295;ListFischi1;0;;2;203;19458;21;133;2993;22451;689;1;1873;1;2065;569;1184;1;1
TMS_Ibrahim;58;3;"<?xml version=""1.0""?>\n<Clock xmlns:dt=""urn:schemas-microsoft-com:datatypes""><Description dt:dt=""string"">E-Prime Primary Realtime Clock</Description><StartTime><Timestamp dt:dt=""int"">0</Timestamp><DateUtc dt:dt=""string"">2023-07-18T10:11:37Z</DateUtc></StartTime><FrequencyChanges><FrequencyChange><Frequency dt:dt=""r8"">3312841</Frequency><Timestamp dt:dt=""r8"">38290580815</Timestamp><Current dt:dt=""r8"">0</Current><DateUtc dt:dt=""string"">2023-07-18T10:11:37Z</DateUtc></FrequencyChange></FrequencyChanges></Clock>\n";TMS_Ibrahim-58-3;75.029;1.0.0.561;1;;-363481373;2.0.10.242;2.0.10.242;07-18-2023;18/07/2023 10:11;12:11:37;2.0.10.147;0;;-999999;20;10530;0;1;1573;12103;1;1;1;2;1;2;1;BlockProcFischi;BlockList;1;175;0;;-999999;13;14273;0;1;1838;16111;1;1;1;1;ProcFischi1;ListBlockFischi;2;1;2;0;0;5;Pr2_B;250;1;op;5;2;6;1;2;1;0;TrialProc;2306;723;Pr2_B;263;1520;1257;ListFischi1;0;;3;201;26681;8;15;1546;28227;458;1;1546;1;620;396;1088;1;1
TMS_Ibrahim;58;3;"<?xml version=""1.0""?>\n<Clock xmlns:dt=""urn:schemas-microsoft-com:datatypes""><Description dt:dt=""string"">E-Prime Primary Realtime Clock</Description><StartTime><Timestamp dt:dt=""int"">0</Timestamp><DateUtc dt:dt=""string"">2023-07-18T10:11:37Z</DateUtc></StartTime><FrequencyChanges><FrequencyChange><Frequency dt:dt=""r8"">3312841</Frequency><Timestamp dt:dt=""r8"">38290580815</Timestamp><Current dt:dt=""r8"">0</Current><DateUtc dt:dt=""string"">2023-07-18T10:11:37Z</DateUtc></FrequencyChange></FrequencyChanges></Clock>\n";TMS_Ibrahim-58-3;75.029;1.0.0.561;1;;-363481373;2.0.10.242;2.0.10.242;07-18-2023;18/07/2023 10:11;12:11:37;2.0.10.147;0;;-999999;20;10530;0;1;1573;12103;1;1;1;2;1;2;1;BlockProcFischi;BlockList;1;175;0;;-999999;13;14273;0;1;1838;16111;1;1;1;1;ProcFischi1;ListBlockFischi;3;1;2;0;1;3;Pr2_B;250;3;ug;3;2;27;1;3;3;1;TrialProc;1450;732;Pr2_B;268;1533;1265;ListFischi1;0;;2;203;34258;15;13;1552;35810;433;1;1552;1;338;328;1119;1;1
TMS_Ibrahim;58;3;"<?xml version=""1.0""?>\n<Clock xmlns:dt=""urn:schemas-microsoft-com:datatypes""><Description dt:dt=""string"">E-Prime Primary Realtime Clock</Description><StartTime><Timestamp dt:dt=""int"">0</Timestamp><DateUtc dt:dt=""string"">2023-07-18T10:11:37Z</DateUtc></StartTime><FrequencyChanges><FrequencyChange><Frequency dt:dt=""r8"">3312841</Frequency><Timestamp dt:dt=""r8"">38290580815</Timestamp><Current dt:dt=""r8"">0</Current><DateUtc dt:dt=""string"">2023-07-18T10:11:37Z</DateUtc></FrequencyChange></FrequencyChanges></Clock>\n";TMS_Ibrahim-58-3;75.029;1.0.0.561;1;;-363481373;2.0.10.242;2.0.10.242;07-18-2023;18/07/2023 10:11;12:11:37;2.0.10.147;0;;-999999;20;10530;0;1;1573;12103;1;1;1;2;1;2;1;BlockProcFischi;BlockList;1;175;0;;-999999;13;14273;0;1;1838;16111;1;1;1;1;ProcFischi1;ListBlockFischi;4;1;1;0;0;3;Po2_B;250;2;op;3;2;33;1;4;2;0;TrialProc;1089;1589;Po2_B;21;1795;1816;ListFischi1;0;;2;203;42930;6;13;1824;44754;288;1;1824;1;792;286;1536;1;1
TMS_Ibrahim;58;3;"<?xml version=""1.0""?>\n<Clock xmlns:dt=""urn:schemas-microsoft-com:datatypes""><Description dt:dt=""string"">E-Prime Primary Realtime Clock</Description><StartTime><Timestamp dt:dt=""int"">0</Timestamp><DateUtc dt:dt=""string"">2023-07-18T10:11:37Z</DateUtc></StartTime><FrequencyChanges><FrequencyChange><Frequency dt:dt=""r8"">3312841</Frequency><Timestamp dt:dt=""r8"">38290580815</Timestamp><Current dt:dt=""r8"">0</Current><DateUtc dt:dt=""string"">2023-07-18T10:11:37Z</DateUtc></FrequencyChange></FrequencyChanges></Clock>\n";TMS_Ibrahim-58-3;75.029;1.0.0.561;1;;-363481373;2.0.10.242;2.0.10.242;07-18-2023;18/07/2023 10:11;12:11:37;2.0.10.147;0;;-999999;20;10530;0;1;1573;12103;1;1;1;2;1;2;1;BlockProcFischi;BlockList;1;175;0;;-999999;13;14273;0;1;1838;16111;1;1;1;1;ProcFischi1;ListBlockFischi;5;1;1;0;0;5;Po4_B;250;4;ug;5;2;51;1;5;4;1;TrialProc;2654;1358;Po4_B;71;1661;1732;ListFischi1;0;;2;201;50505;15;155;2153;52658;377;1;1689;1;606;377;1312;1;1
TMS_Ibrahim;58;3;"<?xml version=""1.0""?>\n<Clock xmlns:dt=""urn:schemas-microsoft-com:datatypes""><Description dt:dt=""string"">E-Prime Primary Realtime Clock</Description><StartTime><Timestamp dt:dt=""int"">0</Timestamp><DateUtc dt:dt=""string"">2023-07-18T10:11:37Z</DateUtc></StartTime><FrequencyChanges><FrequencyChange><Frequency dt:dt=""r8"">3312841</Frequency><Timestamp dt:dt=""r8"">38290580815</Timestamp><Current dt:dt=""r8"">0</Current><DateUtc dt:dt=""string"">2023-07-18T10:11:37Z</DateUtc></FrequencyChange></FrequencyChanges></Clock>\n";TMS_Ibrahim-58-3;75.029;1.0.0.561;1;;-363481373;2.0.10.242;2.0.10.242;07-18-2023;18/07/2023 10:11;12:11:37;2.0.10.147;0;;-999999;20;10530;0;1;1573;12103;1;1;1;2;1;2;1;BlockProcFischi;BlockList;1;175;0;;-999999;13;14273;0;1;1838;16111;1;1;1;1;ProcFischi1;ListBlockFischi;6;1;1;1;0;3;Pomod_B;225;2;op;3;2;48;1;6;2;0;TrialProc;960;1331;Pomod_B;242;1932;1691;ListFischi1;0;;2;201;58076;15;13;1958;60034;502;1;1958;1;664;481;1456;1;1
TMS_Ibrahim;58;3;"<?xml version=""1.0""?>\n<Clock xmlns:dt=""urn:schemas-microsoft-com:datatypes""><Description dt:dt=""string"">E-Prime Primary Realtime Clock</Description><StartTime><Timestamp dt:dt=""int"">0</Timestamp><DateUtc dt:dt=""string"">2023-07-18T10:11:37Z</DateUtc></StartTime><FrequencyChanges><FrequencyChange><Frequency dt:dt=""r8"">3312841</Frequency><Timestamp dt:dt=""r8"">38290580815</Timestamp><Current dt:dt=""r8"">0</Current><DateUtc dt:dt=""string"">2023-07-18T10:11:37Z</DateUtc></FrequencyChange></FrequencyChanges></Clock>\n";TMS_Ibrahim-58-3;75.029;1.0.0.561;1;;-363481373;2.0.10.242;2.0.10.242;07-18-2023;18/07/2023 10:11;12:11:37;2.0.10.147;0;;-999999;20;10530;0;1;1573;12103;1;1;1;2;1;2;1;BlockProcFischi;BlockList;1;175;0;;-999999;13;14273;0;1;1838;16111;1;1;1;1;ProcFischi1;ListBlockFischi;7;1;2;0;1;3;Pr5_B;250;3;ug;3;2;25;1;7;3;1;TrialProc;2409;686;Pr5_B;251;1536;1286;ListFischi1;0;;2;203;65118;10;133;1604;66722;436;1;1572;1;578;536;1136;1;1
TMS_Ibrahim;58;3;"<?xml version=""1.0""?>\n<Clock xmlns:dt=""urn:schemas-microsoft-com:datatypes""><Description dt:dt=""string"">E-Prime Primary Realtime Clock</Description><StartTime><Timestamp dt:dt=""int"">0</Timestamp><DateUtc dt:dt=""string"">2023-07-18T10:11:37Z</DateUtc></StartTime><FrequencyChanges><FrequencyChange><Frequency dt:dt=""r8"">3312841</Frequency><Timestamp dt:dt=""r8"">38290580815</Timestamp><Current dt:dt=""r8"">0</Current><DateUtc dt:dt=""string"">2023-07-18T10:11:37Z</DateUtc></FrequencyChange></FrequencyChanges></Clock>\n";TMS_Ibrahim-58-3;75.029;1.0.0.561;1;;-363481373;2.0.10.242;2.0.10.242;07-18-2023;18/07/2023 10:11;12:11:37;2.0.10.147;0;;-999999;20;10530;0;1;1573;12103;1;1;1;2;1;2;1;BlockProcFischi;BlockList;1;175;0;;-999999;13;14273;0;1;1838;16111;1;1;1;1;ProcFischi1;ListBlockFischi;8;1;2;0;0;5;Pr8_B;250;1;op;5;2;10;1;8;1;0;TrialProc;2973;731;Pr8_B;72;1829;1756;ListFischi1;0;;2;203;73164;14;15;1862;75026;230;1;1862;1;392;235;1632;1;1
TMS_Ibrahim;58;3;"<?xml version=""1.0""?>\n<Clock xmlns:dt=""urn:schemas-microsoft-com:datatypes""><Description dt:dt=""string"">E-Prime Primary Realtime Clock</Description><StartTime><Timestamp dt:dt=""int"">0</Timestamp><DateUtc dt:dt=""string"">2023-07-18T10:11:37Z</DateUtc></StartTime><FrequencyChanges><FrequencyChange><Frequency dt:dt=""r8"">3312841</Frequency><Timestamp dt:dt=""r8"">38290580815</Timestamp><Current dt:dt=""r8"">0</Current><DateUtc dt:dt=""string"">2023-07-18T10:11:37Z</DateUtc></FrequencyChange></FrequencyChanges></Clock>\n";TMS_Ibrahim-58-3;75.029;1.0.0.561;1;;-363481373;2.0.10.242;2.0.10.242;07-18-2023;18/07/2023 10:11;12:11:37;2.0.10.147;0;;-999999;20;10530;0;1;1573;12103;1;1;1;2;1;2;1;BlockProcFischi;BlockList;1;175;0;;-999999;13;14273;0;1;1838;16111;1;1;1;1;ProcFischi1;ListBlockFischi;9;1;2;0;0;5;Pr4_B;225;1;op;5;2;8;1;9;1;0;TrialProc;2148;689;Pr4_B;219;1481;1262;ListFischi1;0;;2;203;81349;13;15;1500;82849;316;1;1500;1;384;295;1184;1;1
TMS_Ibrahim;58;3;"<?xml version=""1.0""?>\n<Clock xmlns:dt=""urn:schemas-microsoft-com:datatypes""><Description dt:dt=""string"">E-Prime Primary Realtime Clock</Description><StartTime><Timestamp dt:dt=""int"">0</Timestamp><DateUtc dt:dt=""string"">2023-07-18T10:11:37Z</DateUtc></StartTime><FrequencyChanges><FrequencyChange><Frequency dt:dt=""r8"">3312841</Frequency><Timestamp dt:dt=""r8"">38290580815</Timestamp><Current dt:dt=""r8"">0</Current><DateUtc dt:dt=""string"">2023-07-18T10:11:37Z</DateUtc></FrequencyChange></FrequencyChanges></Clock>\n";TMS_Ibrahim-58-3;75.029;1.0.0.561;1;;-363481373;2.0.10.242;2.0.10.242;07-18-2023;18/07/2023 10:11;12:11:37;2.0.10.147;0;;-999999;20;10530;0;1;1573;12103;1;1;1;2;1;2;1;BlockProcFischi;BlockList;1;175;0;;-999999;13;14273;0;1;1838;16111;1;1;1;1;ProcFischi1;ListBlockFischi;10;1;1;0;0;3;Po4_B;225;2;op;3;2;40;1;10;2;0;TrialProc;4504;1356;Po4_B;158;1571;1729;ListFischi1;0;;2;201;88505;14;13;1592;90097;328;1;1592;1;477;480;1264;1;1
TMS_Ibrahim;58;3;"<?xml version=""1.0""?>\n<Clock xmlns:dt=""urn:schemas-microsoft-com:datatypes""><Description dt:dt=""string"">E-Prime Primary Realtime Clock</Description><StartTime><Timestamp dt:dt=""int"">0</Timestamp><DateUtc dt:dt=""string"">2023-07-18T10:11:37Z</DateUtc></StartTime><FrequencyChanges><FrequencyChange><Frequency dt:dt=""r8"">3312841</Frequency><Timestamp dt:dt=""r8"">38290580815</Timestamp><Current dt:dt=""r8"">0</Current><DateUtc dt:dt=""string"">2023-07-18T10:11:37Z</DateUtc></FrequencyChange></FrequencyChanges></Clock>\n";TMS_Ibrahim-58-3;75.029;1.0.0.561;1;;-363481373;2.0.10.242;2.0.10.242;07-18-2023;18/07/2023 10:11;12:11:37;2.0.10.147;0;;-999999;20;10530;0;1;1573;12103;1;1;1;2;1;2;1;BlockProcFischi;BlockList;1;175;0;;-999999;13;14273;0;1;1838;16111;1;1;1;1;ProcFischi1;ListBlockFischi;11;1;2;0;1;3;Pr4_B;250;3;ug;3;2;29;1;11;3;1;TrialProc;3373;686;Pr4_B;227;1487;1260;ListFischi1;0;;2;203;96772;10;13;1517;98289;318;1;1517;1;497;222;1199;1;1
TMS_Ibrahim;58;3;"<?xml version=""1.0""?>\n<Clock xmlns:dt=""urn:schemas-microsoft-com:datatypes""><Description dt:dt=""string"">E-Prime Primary Realtime Clock</Description><StartTime><Timestamp dt:dt=""int"">0</Timestamp><DateUtc dt:dt=""string"">2023-07-18T10:11:37Z</DateUtc></StartTime><FrequencyChanges><FrequencyChange><Frequency dt:dt=""r8"">3312841</Frequency><Timestamp dt:dt=""r8"">38290580815</Timestamp><Current dt:dt=""r8"">0</Current><DateUtc dt:dt=""string"">2023-07-18T10:11:37Z</DateUtc></FrequencyChange></FrequencyChanges></Clock>\n";TMS_Ibrahim-58-3;75.029;1.0.0.561;1;;-363481373;2.0.10.242;2.0.10.242;07-18-2023;18/07/2023 10:11;12:11:37;2.0.10.147;0;;-999999;20;10530;0;1;1573;12103;1;1;1;2;1;2;1;BlockProcFischi;BlockList;1;175;0;;-999999;13;14273;0;1;1838;16111;1;1;1;1;ProcFischi1;ListBlockFischi;12;1;1;0;0;3;Po5_B;200;2;op;3;2;41;1;12;2;0;TrialProc;1988;991;Po5_B;144;1629;1484;ListFischi1;0;;2;203;104917;9;13;1660;106577;396;1;1660;1;820;455;1264;1;1
TMS_Ibrahim;58;3;"<?xml version=""1.0""?>\n<Clock xmlns:dt=""urn:schemas-microsoft-com:datatypes""><Description dt:dt=""string"">E-Prime Primary Realtime Clock</Description><StartTime><Timestamp dt:dt=""int"">0</Timestamp><DateUtc dt:dt=""string"">2023-07-18T10:11:37Z</DateUtc></StartTime><FrequencyChanges><FrequencyChange><Frequency dt:dt=""r8"">3312841</Frequency><Timestamp dt:dt=""r8"">38290580815</Timestamp><Current dt:dt=""r8"">0</Current><DateUtc dt:dt=""string"">2023-07-18T10:11:37Z</DateUtc></FrequencyChange></FrequencyChanges></Clock>\n";TMS_Ibrahim-58-3;75.029;1.0.0.561;1;;-363481373;2.0.10.242;2.0.10.242;07-18-2023;18/07/2023 10:11;12:11:37;2.0.10.147;0;;-999999;20;10530;0;1;1573;12103;1;1;1;2;1;2;1;BlockProcFischi;BlockList;1;175;0;;-999999;13;14273;0;1;1838;16111;1;1;1;1;ProcFischi1;ListBlockFischi;13;0;1;0;0;5;Po8_B;;4;ug;3;2;53;1;13;4;1;TrialProc;1896;1262;Po8_B;32;1627;1594;ListFischi1;0;;2;203;113004;12;13;1653;114657;341;1;1653;1;357;490;1312;1;0
TMS_Ibrahim;58;3;"<?xml version=""1.0""?>\n<Clock xmlns:dt=""urn:schemas-microsoft-com:datatypes""><Description dt:dt=""string"">E-Prime Primary Realtime Clock</Description><StartTime><Timestamp dt:dt=""int"">0</Timestamp><DateUtc dt:dt=""string"">2023-07-18T10:11:37Z</DateUtc></StartTime><FrequencyChanges><FrequencyChange><Frequency dt:dt=""r8"">3312841</Frequency><Timestamp dt:dt=""r8"">38290580815</Timestamp><Current dt:dt=""r8"">0</Current><DateUtc dt:dt=""string"">2023-07-18T10:11:37Z</DateUtc></FrequencyChange></FrequencyChanges></Clock>\n";TMS_Ibrahim-58-3;75.029;1.0.0.561;1;;-363481373;2.0.10.242;2.0.10.242;07-18-2023;18/07/2023 10:11;12:11:37;2.0.10.147;0;;-999999;20;10530;0;1;1573;12103;1;1;1;2;1;2;1;BlockProcFischi;BlockList;1;175;0;;-999999;13;14273;0;1;1838;16111;1;1;1;1;ProcFischi1;ListBlockFischi;14;1;1;0;0;3;Po4_B;175;2;op;3;2;35;1;14;2;0;TrialProc;1800;1358;Po4_B;118;1612;1730;ListFischi1;0;;2;201;120919;14;13;1642;122561;218;1;1642;1;572;458;1424;1;1
TMS_Ibrahim;58;3;"<?xml version=""1.0""?>\n<Clock xmlns:dt=""urn:schemas-microsoft-com:datatypes""><Description dt:dt=""string"">E-Prime Primary Realtime Clock</Description><StartTime><Timestamp dt:dt=""int"">0</Timestamp><DateUtc dt:dt=""string"">2023-07-18T10:11:37Z</DateUtc></StartTime><FrequencyChanges><FrequencyChange><Frequency dt:dt=""r8"">3312841</Frequency><Timestamp dt:dt=""r8"">38290580815</Timestamp><Current dt:dt=""r8"">0</Current><DateUtc dt:dt=""string"">2023-07-18T10:11:37Z</DateUtc></FrequencyChange></FrequencyChanges></Clock>\n";TMS_Ibrahim-58-3;75.029;1.0.0.561;1;;-363481373;2.0.10.242;2.0.10.242;07-18-2023;18/07/2023 10:11;12:11:37;2.0.10.147;0;;-999999;20;10530;0;1;1573;12103;1;1;1;2;1;2;1;BlockProcFischi;BlockList;1;175;0;;-999999;13;14273;0;1;1838;16111;1;1;1;1;ProcFischi1;ListBlockFischi;15;1;2;0;1;3;Pr8_B;250;3;ug;3;2;26;1;15;3;1;TrialProc;1601;729;Pr8_B;77;1833;1756;ListFischi1;0;;2;203;128970;14;13;1862;130832;553;1;1862;1;564;436;1309;1;1
TMS_Ibrahim;58;3;"<?xml version=""1.0""?>\n<Clock xmlns:dt=""urn:schemas-microsoft-com:datatypes""><Description dt:dt=""string"">E-Prime Primary Realtime Clock</Description><StartTime><Timestamp dt:dt=""int"">0</Timestamp><DateUtc dt:dt=""string"">2023-07-18T10:11:37Z</DateUtc></StartTime><FrequencyChanges><FrequencyChange><Frequency dt:dt=""r8"">3312841</Frequency><Timestamp dt:dt=""r8"">38290580815</Timestamp><Current dt:dt=""r8"">0</Current><DateUtc dt:dt=""string"">2023-07-18T10:11:37Z</DateUtc></FrequencyChange></FrequencyChanges></Clock>\n";TMS_Ibrahim-58-3;75.029;1.0.0.561;1;;-363481373;2.0.10.242;2.0.10.242;07-18-2023;18/07/2023 10:11;12:11:37;2.0.10.147;0;;-999999;20;10530;0;1;1573;12103;1;1;1;2;1;2;1;BlockProcFischi;BlockList;1;175;0;;-999999;13;14273;0;1;1838;16111;1;1;1;1;ProcFischi1;ListBlockFischi;16;1;2;0;0;5;Pr2_B;225;1;op;5;2;1;1;16;1;0;TrialProc;1364;724;Pr2_B;242;1499;1257;ListFischi1;0;;2;203;136519;8;15;1529;138048;297;1;1529;1;867;600;1232;1;1
TMS_Ibrahim;58;3;"<?xml version=""1.0""?>\n<Clock xmlns:dt=""urn:schemas-microsoft-com:datatypes""><Description dt:dt=""string"">E-Prime Primary Realtime Clock</Description><StartTime><Timestamp dt:dt=""int"">0</Timestamp><DateUtc dt:dt=""string"">2023-07-18T10:11:37Z</DateUtc></StartTime><FrequencyChanges><FrequencyChange><Frequency dt:dt=""r8"">3312841</Frequency><Timestamp dt:dt=""r8"">38290580815</Timestamp><Current dt:dt=""r8"">0</Current><DateUtc dt:dt=""string"">2023-07-18T10:11:37Z</DateUtc></FrequencyChange></FrequencyChanges></Clock>\n";TMS_Ibrahim-58-3;75.029;1.0.0.561;1;;-363481373;2.0.10.242;2.0.10.242;07-18-2023;18/07/2023 10:11;12:11:37;2.0.10.147;0;;-999999;20;10530;0;1;1573;12103;1;1;1;2;1;2;1;BlockProcFischi;BlockList;1;175;0;;-999999;13;14273;0;1;1838;16111;1;1;1;1;ProcFischi1;ListBlockFischi;17;1;2;0;0;3;Pr3_B;225;3;ug;3;2;18;1;17;3;1;TrialProc;2182;731;Pr3_B;73;1658;1732;ListFischi1;0;;2;201;144283;15;133;2917;147200;245;1;1685;1;819;329;1440;1;1
TMS_Ibrahim;58;3;"<?xml version=""1.0""?>\n<Clock xmlns:dt=""urn:schemas-microsoft-com:datatypes""><Description dt:dt=""string"">E-Prime Primary Realtime Clock</Description><StartTime><Timestamp dt:dt=""int"">0</Timestamp><DateUtc dt:dt=""string"">2023-07-18T10:11:37Z</DateUtc></StartTime><FrequencyChanges><FrequencyChange><Frequency dt:dt=""r8"">3312841</Frequency><Timestamp dt:dt=""r8"">38290580815</Timestamp><Current dt:dt=""r8"">0</Current><DateUtc dt:dt=""string"">2023-07-18T10:11:37Z</DateUtc></FrequencyChange></FrequencyChanges></Clock>\n";TMS_Ibrahim-58-3;75.029;1.0.0.561;1;;-363481373;2.0.10.242;2.0.10.242;07-18-2023;18/07/2023 10:11;12:11:37;2.0.10.147;0;;-999999;20;10530;0;1;1573;12103;1;1;1;2;1;2;1;BlockProcFischi;BlockList;1;175;0;;-999999;13;14273;0;1;1838;16111;1;1;1;1;ProcFischi1;ListBlockFischi;18;1;1;0;0;3;Po2_B;150;2;op;3;2;38;1;18;2;0;TrialProc;2119;1598;Po2_B;73;1896;1824;ListFischi1;0;;2;203;151599;16;13;1921;153520;513;1;1921;1;858;544;1408;1;1
TMS_Ibrahim;58;3;"<?xml version=""1.0""?>\n<Clock xmlns:dt=""urn:schemas-microsoft-com:datatypes""><Description dt:dt=""string"">E-Prime Primary Realtime Clock</Description><StartTime><Timestamp dt:dt=""int"">0</Timestamp><DateUtc dt:dt=""string"">2023-07-18T10:11:37Z</DateUtc></StartTime><FrequencyChanges><FrequencyChange><Frequency dt:dt=""r8"">3312841</Frequency><Timestamp dt:dt=""r8"">38290580815</Timestamp><Current dt:dt=""r8"">0</Current><DateUtc dt:dt=""string"">2023-07-18T10:11:37Z</DateUtc></FrequencyChange></FrequencyChanges></Clock>\n";TMS_Ibrahim-58-3;75.029;1.0.0.561;1;;-363481373;2.0.10.242;2.0.10.242;07-18-2023;18/07/2023 10:11;12:11:37;2.0.10.147;0;;-999999;20;10530;0;1;1573;12103;1;1;1;2;1;2;1;BlockProcFischi;BlockList;1;175;0;;-999999;13;14273;0;1;1838;16111;1;1;1;1;ProcFischi1;ListBlockFischi;19;1;1;0;0;5;Po5_B;225;4;ug;5;2;62;1;19;4;1;TrialProc;2558;991;Po5_B;15;1471;1486;ListFischi1;0;;2;203;160509;9;15;1491;162000;419;1;1491;1;668;366;1072;1;1
TMS_Ibrahim;58;3;"<?xml version=""1.0""?>\n<Clock xmlns:dt=""urn:schemas-microsoft-com:datatypes""><Description dt:dt=""string"">E-Prime Primary Realtime Clock</Description><StartTime><Timestamp dt:dt=""int"">0</Timestamp><DateUtc dt:dt=""string"">2023-07-18T10:11:37Z</DateUtc></StartTime><FrequencyChanges><FrequencyChange><Frequency dt:dt=""r8"">3312841</Frequency><Timestamp dt:dt=""r8"">38290580815</Timestamp><Current dt:dt=""r8"">0</Current><DateUtc dt:dt=""string"">2023-07-18T10:11:37Z</DateUtc></FrequencyChange></FrequencyChanges></Clock>\n";TMS_Ibrahim-58-3;75.029;1.0.0.561;1;;-363481373;2.0.10.242;2.0.10.242;07-18-2023;18/07/2023 10:11;12:11:37;2.0.10.147;0;;-999999;20;10530;0;1;1573;12103;1;1;1;2;1;2;1;BlockProcFischi;BlockList;1;175;0;;-999999;13;14273;0;1;1838;16111;1;1;1;1;ProcFischi1;ListBlockFischi;20;1;2;0;0;5;Pr3_B;225;1;op;5;2;7;1;20;1;0;TrialProc;1691;726;Pr3_B;18;1745;1726;ListFischi1;0;;2;201;168199;10;15;1768;169967;360;1;1768;1;627;285;1408;1;1
TMS_Ibrahim;58;3;"<?xml version=""1.0""?>\n<Clock xmlns:dt=""urn:schemas-microsoft-com:datatypes""><Description dt:dt=""string"">E-Prime Primary Realtime Clock</Description><StartTime><Timestamp dt:dt=""int"">0</Timestamp><DateUtc dt:dt=""string"">2023-07-18T10:11:37Z</DateUtc></StartTime><FrequencyChanges><FrequencyChange><Frequency dt:dt=""r8"">3312841</Frequency><Timestamp dt:dt=""r8"">38290580815</Timestamp><Current dt:dt=""r8"">0</Current><DateUtc dt:dt=""string"">2023-07-18T10:11:37Z</DateUtc></FrequencyChange></FrequencyChanges></Clock>\n";TMS_Ibrahim-58-3;75.029;1.0.0.561;1;;-363481373;2.0.10.242;2.0.10.242;07-18-2023;18/07/2023 10:11;12:11:37;2.0.10.147;0;;-999999;20;10530;0;1;1573;12103;1;1;1;2;1;2;1;BlockProcFischi;BlockList;1;175;0;;-999999;13;14273;0;1;1838;16111;1;1;1;1;ProcFischi1;ListBlockFischi;21;1;2;1;0;3;Prmod_B;200;3;ug;3;2;32;1;21;3;1;TrialProc;969;1329;Prmod_B;39;1701;1662;ListFischi1;0;;2;203;176473;12;13;1734;178207;502;1;1734;1;617;379;1232;1;1
TMS_Ibrahim;58;3;"<?xml version=""1.0""?>\n<Clock xmlns:dt=""urn:schemas-microsoft-com:datatypes""><Description dt:dt=""string"">E-Prime Primary Realtime Clock</Description><StartTime><Timestamp dt:dt=""int"">0</Timestamp><DateUtc dt:dt=""string"">2023-07-18T10:11:37Z</DateUtc></StartTime><FrequencyChanges><FrequencyChange><Frequency dt:dt=""r8"">3312841</Frequency><Timestamp dt:dt=""r8"">38290580815</Timestamp><Current dt:dt=""r8"">0</Current><DateUtc dt:dt=""string"">2023-07-18T10:11:37Z</DateUtc></FrequencyChange></FrequencyChanges></Clock>\n";TMS_Ibrahim-58-3;75.029;1.0.0.561;1;;-363481373;2.0.10.242;2.0.10.242;07-18-2023;18/07/2023 10:11;12:11:37;2.0.10.147;0;;-999999;20;10530;0;1;1573;12103;1;1;1;2;1;2;1;BlockProcFischi;BlockList;1;175;0;;-999999;13;14273;0;1;1838;16111;1;1;1;1;ProcFischi1;ListBlockFischi;22;1;2;0;0;3;Pr8_B;175;3;ug;3;2;21;1;22;3;1;TrialProc;2408;729;Pr8_B;74;1829;1756;ListFischi1;0;;2;203;185536;13;13;1855;187391;287;1;1855;1;620;425;1568;1;1
TMS_Ibrahim;58;3;"<?xml version=""1.0""?>\n<Clock xmlns:dt=""urn:schemas-microsoft-com:datatypes""><Description dt:dt=""string"">E-Prime Primary Realtime Clock</Description><StartTime><Timestamp dt:dt=""int"">0</Timestamp><DateUtc dt:dt=""string"">2023-07-18T10:11:37Z</DateUtc></StartTime><FrequencyChanges><FrequencyChange><Frequency dt:dt=""r8"">3312841</Frequency><Timestamp dt:dt=""r8"">38290580815</Timestamp><Current dt:dt=""r8"">0</Current><DateUtc dt:dt=""string"">2023-07-18T10:11:37Z</DateUtc></FrequencyChange></FrequencyChanges></Clock>\n";TMS_Ibrahim-58-3;75.029;1.0.0.561;1;;-363481373;2.0.10.242;2.0.10.242;07-18-2023;18/07/2023 10:11;12:11:37;2.0.10.147;0;;-999999;20;10530;0;1;1573;12103;1;1;1;2;1;2;1;BlockProcFischi;BlockList;1;175;0;;-999999;13;14273;0;1;1838;16111;1;1;1;1;ProcFischi1;ListBlockFischi;23;1;1;0;0;3;Po3_B;125;2;op;3;2;44;1;23;2;0;TrialProc;2423;1328;Po3_B;103;1697;1594;ListFischi1;0;;2;201;193068;11;13;1731;194799;451;1;1731;1;814;348;1280;1;1
TMS_Ibrahim;58;3;"<?xml version=""1.0""?>\n<Clock xmlns:dt=""urn:schemas-microsoft-com:datatypes""><Description dt:dt=""string"">E-Prime Primary Realtime Clock</Description><StartTime><Timestamp dt:dt=""int"">0</Timestamp><DateUtc dt:dt=""string"">2023-07-18T10:11:37Z</DateUtc></StartTime><FrequencyChanges><FrequencyChange><Frequency dt:dt=""r8"">3312841</Frequency><Timestamp dt:dt=""r8"">38290580815</Timestamp><Current dt:dt=""r8"">0</Current><DateUtc dt:dt=""string"">2023-07-18T10:11:37Z</DateUtc></FrequencyChange></FrequencyChanges></Clock>\n";TMS_Ibrahim-58-3;75.029;1.0.0.561;1;;-363481373;2.0.10.242;2.0.10.242;07-18-2023;18/07/2023 10:11;12:11:37;2.0.10.147;0;;-999999;20;10530;0;1;1573;12103;1;1;1;2;1;2;1;BlockProcFischi;BlockList;1;175;0;;-999999;13;14273;0;1;1838;16111;1;1;1;1;ProcFischi1;ListBlockFischi;24;1;2;0;0;5;Pr4_B;200;1;op;5;2;3;1;24;1;0;TrialProc;2176;694;Pr4_B;314;1581;1266;ListFischi1;0;;2;203;201100;16;155;2147;203247;291;1;1603;1;673;234;1312;1;1
TMS_Ibrahim;58;3;"<?xml version=""1.0""?>\n<Clock xmlns:dt=""urn:schemas-microsoft-com:datatypes""><Description dt:dt=""string"">E-Prime Primary Realtime Clock</Description><StartTime><Timestamp dt:dt=""int"">0</Timestamp><DateUtc dt:dt=""string"">2023-07-18T10:11:37Z</DateUtc></StartTime><FrequencyChanges><FrequencyChange><Frequency dt:dt=""r8"">3312841</Frequency><Timestamp dt:dt=""r8"">38290580815</Timestamp><Current dt:dt=""r8"">0</Current><DateUtc dt:dt=""string"">2023-07-18T10:11:37Z</DateUtc></FrequencyChange></FrequencyChanges></Clock>\n";TMS_Ibrahim-58-3;75.029;1.0.0.561;1;;-363481373;2.0.10.242;2.0.10.242;07-18-2023;18/07/2023 10:11;12:11:37;2.0.10.147;0;;-999999;20;10530;0;1;1573;12103;1;1;1;2;1;2;1;BlockProcFischi;BlockList;1;175;0;;-999999;13;14273;0;1;1838;16111;1;1;1;1;ProcFischi1;ListBlockFischi;25;1;2;0;0;3;Pr3_B;150;3;ug;3;2;23;1;25;3;1;TrialProc;1667;726;Pr3_B;125;1601;1726;ListFischi1;0;;2;201;208770;10;13;1628;210398;351;1;1628;1;531;549;1277;1;1
TMS_Ibrahim;58;3;"<?xml version=""1.0""?>\n<Clock xmlns:dt=""urn:schemas-microsoft-com:datatypes""><Description dt:dt=""string"">E-Prime Primary Realtime Clock</Description><StartTime><Timestamp dt:dt=""int"">0</Timestamp><DateUtc dt:dt=""string"">2023-07-18T10:11:37Z</DateUtc></StartTime><FrequencyChanges><FrequencyChange><Frequency dt:dt=""r8"">3312841</Frequency><Timestamp dt:dt=""r8"">38290580815</Timestamp><Current dt:dt=""r8"">0</Current><DateUtc dt:dt=""string"">2023-07-18T10:11:37Z</DateUtc></FrequencyChange></FrequencyChanges></Clock>\n";TMS_Ibrahim-58-3;75.029;1.0.0.561;1;;-363481373;2.0.10.242;2.0.10.242;07-18-2023;18/07/2023 10:11;12:11:37;2.0.10.147;0;;-999999;20;10530;0;1;1573;12103;1;1;1;2;1;2;1;BlockProcFischi;BlockList;1;175;0;;-999999;13;14273;0;1;1838;16111;1;1;1;1;ProcFischi1;ListBlockFischi;26;1;1;0;0;5;Po8_B;200;4;ug;5;2;58;1;26;4;1;TrialProc;2004;1264;Po8_B;60;1658;1598;ListFischi1;0;;2;203;216043;14;15;1683;217726;355;1;1683;1;482;584;1328;1;1
TMS_Ibrahim;58;3;"<?xml version=""1.0""?>\n<Clock xmlns:dt=""urn:schemas-microsoft-com:datatypes""><Description dt:dt=""string"">E-Prime Primary Realtime Clock</Description><StartTime><Timestamp dt:dt=""int"">0</Timestamp><DateUtc dt:dt=""string"">2023-07-18T10:11:37Z</DateUtc></StartTime><FrequencyChanges><FrequencyChange><Frequency dt:dt=""r8"">3312841</Frequency><Timestamp dt:dt=""r8"">38290580815</Timestamp><Current dt:dt=""r8"">0</Current><DateUtc dt:dt=""string"">2023-07-18T10:11:37Z</DateUtc></FrequencyChange></FrequencyChanges></Clock>\n";TMS_Ibrahim-58-3;75.029;1.0.0.561;1;;-363481373;2.0.10.242;2.0.10.242;07-18-2023;18/07/2023 10:11;12:11:37;2.0.10.147;0;;-999999;20;10530;0;1;1573;12103;1;1;1;2;1;2;1;BlockProcFischi;BlockList;1;175;0;;-999999;13;14273;0;1;1838;16111;1;1;1;1;ProcFischi1;ListBlockFischi;27;1;1;0;0;5;Po5_B;175;4;ug;5;2;52;1;27;4;1;TrialProc;2203;1000;Po5_B;208;1699;1492;ListFischi1;0;;2;201;223426;15;15;1724;225150;589;1;1724;1;1075;379;1135;1;1
TMS_Ibrahim;58;3;"<?xml version=""1.0""?>\n<Clock xmlns:dt=""urn:schemas-microsoft-com:datatypes""><Description dt:dt=""string"">E-Prime Primary Realtime Clock</Description><StartTime><Timestamp dt:dt=""int"">0</Timestamp><DateUtc dt:dt=""string"">2023-07-18T10:11:37Z</DateUtc></StartTime><FrequencyChanges><FrequencyChange><Frequency dt:dt=""r8"">3312841</Frequency><Timestamp dt:dt=""r8"">38290580815</Timestamp><Current dt:dt=""r8"">0</Current><DateUtc dt:dt=""string"">2023-07-18T10:11:37Z</DateUtc></FrequencyChange></FrequencyChanges></Clock>\n";TMS_Ibrahim-58-3;75.029;1.0.0.561;1;;-363481373;2.0.10.242;2.0.10.242;07-18-2023;18/07/2023 10:11;12:11:37;2.0.10.147;0;;-999999;20;10530;0;1;1573;12103;1;1;1;2;1;2;1;BlockProcFischi;BlockList;1;175;0;;-999999;13;14273;0;1;1838;16111;1;1;1;1;ProcFischi1;ListBlockFischi;28;1;1;0;0;3;Po8_B;125;2;op;3;2;37;1;28;2;0;TrialProc;2269;1275;Po8_B;89;1698;1609;ListFischi1;0;;4;210;233062;15;13;1720;234782;216;1;1720;1;995;368;1504;1;1
TMS_Ibrahim;58;3;"<?xml version=""1.0""?>\n<Clock xmlns:dt=""urn:schemas-microsoft-com:datatypes""><Description dt:dt=""string"">E-Prime Primary Realtime Clock</Description><StartTime><Timestamp dt:dt=""int"">0</Timestamp><DateUtc dt:dt=""string"">2023-07-18T10:11:37Z</DateUtc></StartTime><FrequencyChanges><FrequencyChange><Frequency dt:dt=""r8"">3312841</Frequency><Timestamp dt:dt=""r8"">38290580815</Timestamp><Current dt:dt=""r8"">0</Current><DateUtc dt:dt=""string"">2023-07-18T10:11:37Z</DateUtc></FrequencyChange></FrequencyChanges></Clock>\n";TMS_Ibrahim-58-3;75.029;1.0.0.561;1;;-363481373;2.0.10.242;2.0.10.242;07-18-2023;18/07/2023 10:11;12:11:37;2.0.10.147;0;;-999999;20;10530;0;1;1573;12103;1;1;1;2;1;2;1;BlockProcFischi;BlockList;1;175;0;;-999999;13;14273;0;1;1838;16111;1;1;1;1;ProcFischi1;ListBlockFischi;29;1;1;0;1;5;Po2_B;175;4;ug;5;2;54;1;29;4;1;TrialProc;1512;1594;Po2_B;237;1583;1821;ListFischi1;0;;2;203;241369;12;15;1605;242974;277;1;1605;1;391;326;1328;1;1
TMS_Ibrahim;58;3;"<?xml version=""1.0""?>\n<Clock xmlns:dt=""urn:schemas-microsoft-com:datatypes""><Description dt:dt=""string"">E-Prime Primary Realtime Clock</Description><StartTime><Timestamp dt:dt=""int"">0</Timestamp><DateUtc dt:dt=""string"">2023-07-18T10:11:37Z</DateUtc></StartTime><FrequencyChanges><FrequencyChange><Frequency dt:dt=""r8"">3312841</Frequency><Timestamp dt:dt=""r8"">38290580815</Timestamp><Current dt:dt=""r8"">0</Current><DateUtc dt:dt=""string"">2023-07-18T10:11:37Z</DateUtc></FrequencyChange></FrequencyChanges></Clock>\n";TMS_Ibrahim-58-3;75.029;1.0.0.561;1;;-363481373;2.0.10.242;2.0.10.242;07-18-2023;18/07/2023 10:11;12:11:37;2.0.10.147;0;;-999999;20;10530;0;1;1573;12103;1;1;1;2;1;2;1;BlockProcFischi;BlockList;1;175;0;;-999999;13;14273;0;1;1838;16111;1;1;1;1;ProcFischi1;ListBlockFischi;30;1;1;0;2;5;Po2_B;175;4;ug;5;2;59;1;30;4;1;TrialProc;2143;1591;Po2_B;358;1459;1817;ListFischi1;0;;2;203;249357;7;155;2529;251886;177;1;1488;1;1019;570;1311;1;1
TMS_Ibrahim;58;3;"<?xml version=""1.0""?>\n<Clock xmlns:dt=""urn:schemas-microsoft-com:datatypes""><Description dt:dt=""string"">E-Prime Primary Realtime Clock</Description><StartTime><Timestamp dt:dt=""int"">0</Timestamp><DateUtc dt:dt=""string"">2023-07-18T10:11:37Z</DateUtc></StartTime><FrequencyChanges><FrequencyChange><Frequency dt:dt=""r8"">3312841</Frequency><Timestamp dt:dt=""r8"">38290580815</Timestamp><Current dt:dt=""r8"">0</Current><DateUtc dt:dt=""string"">2023-07-18T10:11:37Z</DateUtc></FrequencyChange></FrequencyChanges></Clock>\n";TMS_Ibrahim-58-3;75.029;1.0.0.561;1;;-363481373;2.0.10.242;2.0.10.242;07-18-2023;18/07/2023 10:11;12:11:37;2.0.10.147;0;;-999999;20;10530;0;1;1573;12103;1;1;1;2;1;2;1;BlockProcFischi;BlockList;1;175;0;;-999999;13;14273;0;1;1838;16111;1;1;1;1;ProcFischi1;ListBlockFischi;31;1;1;0;0;5;Po2_B;200;4;ug;5;2;49;1;31;4;1;TrialProc;1791;1598;Po2_B;223;1601;1823;ListFischi1;0;;2;201;256107;15;15;1634;257741;258;1;1634;1;1512;527;1376;1;1
TMS_Ibrahim;58;3;"<?xml version=""1.0""?>\n<Clock xmlns:dt=""urn:schemas-microsoft-com:datatypes""><Description dt:dt=""string"">E-Prime Primary Realtime Clock</Description><StartTime><Timestamp dt:dt=""int"">0</Timestamp><DateUtc dt:dt=""string"">2023-07-18T10:11:37Z</DateUtc></StartTime><FrequencyChanges><FrequencyChange><Frequency dt:dt=""r8"">3312841</Frequency><Timestamp dt:dt=""r8"">38290580815</Timestamp><Current dt:dt=""r8"">0</Current><DateUtc dt:dt=""string"">2023-07-18T10:11:37Z</DateUtc></FrequencyChange></FrequencyChanges></Clock>\n";TMS_Ibrahim-58-3;75.029;1.0.0.561;1;;-363481373;2.0.10.242;2.0.10.242;07-18-2023;18/07/2023 10:11;12:11:37;2.0.10.147;0;;-999999;20;10530;0;1;1573;12103;1;1;1;2;1;2;1;BlockProcFischi;BlockList;1;175;0;;-999999;13;14273;0;1;1838;16111;1;1;1;1;ProcFischi1;ListBlockFischi;32;1;2;0;0;3;Pr4_B;150;3;ug;3;2;24;1;32;3;1;TrialProc;2364;685;Pr4_B;185;1442;1257;ListFischi1;0;;2;203;264643;9;13;1466;266109;74;1;1466;1;1047;407;1392;1;1
TMS_Ibrahim;58;3;"<?xml version=""1.0""?>\n<Clock xmlns:dt=""urn:schemas-microsoft-com:datatypes""><Description dt:dt=""string"">E-Prime Primary Realtime Clock</Description><StartTime><Timestamp dt:dt=""int"">0</Timestamp><DateUtc dt:dt=""string"">2023-07-18T10:11:37Z</DateUtc></StartTime><FrequencyChanges><FrequencyChange><Frequency dt:dt=""r8"">3312841</Frequency><Timestamp dt:dt=""r8"">38290580815</Timestamp><Current dt:dt=""r8"">0</Current><DateUtc dt:dt=""string"">2023-07-18T10:11:37Z</DateUtc></FrequencyChange></FrequencyChanges></Clock>\n";TMS_Ibrahim-58-3;75.029;1.0.0.561;1;;-363481373;2.0.10.242;2.0.10.242;07-18-2023;18/07/2023 10:11;12:11:37;2.0.10.147;0;;-999999;20;10530;0;1;1573;12103;1;1;1;2;1;2;1;BlockProcFischi;BlockList;1;175;0;;-999999;13;14273;0;1;1838;16111;1;1;1;1;ProcFischi1;ListBlockFischi;33;1;1;0;0;3;Po3_B;100;2;op;3;2;39;1;33;2;0;TrialProc;1108;1331;Po3_B;42;1641;1599;ListFischi1;0;;2;201;272127;15;131;4910;277037;254;1;1662;1;2247;389;1408;1;1
TMS_Ibrahim;58;3;"<?xml version=""1.0""?>\n<Clock xmlns:dt=""urn:schemas-microsoft-com:datatypes""><Description dt:dt=""string"">E-Prime Primary Realtime Clock</Description><StartTime><Timestamp dt:dt=""int"">0</Timestamp><DateUtc dt:dt=""string"">2023-07-18T10:11:37Z</DateUtc></StartTime><FrequencyChanges><FrequencyChange><Frequency dt:dt=""r8"">3312841</Frequency><Timestamp dt:dt=""r8"">38290580815</Timestamp><Current dt:dt=""r8"">0</Current><DateUtc dt:dt=""string"">2023-07-18T10:11:37Z</DateUtc></FrequencyChange></FrequencyChanges></Clock>\n";TMS_Ibrahim-58-3;75.029;1.0.0.561;1;;-363481373;2.0.10.242;2.0.10.242;07-18-2023;18/07/2023 10:11;12:11:37;2.0.10.147;0;;-999999;20;10530;0;1;1573;12103;1;1;1;2;1;2;1;BlockProcFischi;BlockList;1;175;0;;-999999;13;14273;0;1;1838;16111;1;1;1;1;ProcFischi1;ListBlockFischi;34;1;2;0;1;3;Pr3_B;150;3;ug;3;2;28;1;34;3;1;TrialProc;1326;730;Pr3_B;63;1792;1729;ListFischi1;0;;2;203;280087;12;13;1814;281901;486;1;1814;1;439;360;1328;1;1
TMS_Ibrahim;58;3;"<?xml version=""1.0""?>\n<Clock xmlns:dt=""urn:schemas-microsoft-com:datatypes""><Description dt:dt=""string"">E-Prime Primary Realtime Clock</Description><StartTime><Timestamp dt:dt=""int"">0</Timestamp><DateUtc dt:dt=""string"">2023-07-18T10:11:37Z</DateUtc></StartTime><FrequencyChanges><FrequencyChange><Frequency dt:dt=""r8"">3312841</Frequency><Timestamp dt:dt=""r8"">38290580815</Timestamp><Current dt:dt=""r8"">0</Current><DateUtc dt:dt=""string"">2023-07-18T10:11:37Z</DateUtc></FrequencyChange></FrequencyChanges></Clock>\n";TMS_Ibrahim-58-3;75.029;1.0.0.561;1;;-363481373;2.0.10.242;2.0.10.242;07-18-2023;18/07/2023 10:11;12:11:37;2.0.10.147;0;;-999999;20;10530;0;1;1573;12103;1;1;1;2;1;2;1;BlockProcFischi;BlockList;1;175;0;;-999999;13;14273;0;1;1838;16111;1;1;1;1;ProcFischi1;ListBlockFischi;35;1;1;0;0;5;Po3_B;200;4;ug;5;2;50;1;35;4;1;TrialProc;1300;1333;Po3_B;75;1675;1600;ListFischi1;0;;2;201;287533;17;15;1696;289229;208;1;1696;1;640;221;1488;1;1
TMS_Ibrahim;58;3;"<?xml version=""1.0""?>\n<Clock xmlns:dt=""urn:schemas-microsoft-com:datatypes""><Description dt:dt=""string"">E-Prime Primary Realtime Clock</Description><StartTime><Timestamp dt:dt=""int"">0</Timestamp><DateUtc dt:dt=""string"">2023-07-18T10:11:37Z</DateUtc></StartTime><FrequencyChanges><FrequencyChange><Frequency dt:dt=""r8"">3312841</Frequency><Timestamp dt:dt=""r8"">38290580815</Timestamp><Current dt:dt=""r8"">0</Current><DateUtc dt:dt=""string"">2023-07-18T10:11:37Z</DateUtc></FrequencyChange></FrequencyChanges></Clock>\n";TMS_Ibrahim-58-3;75.029;1.0.0.561;1;;-363481373;2.0.10.242;2.0.10.242;07-18-2023;18/07/2023 10:11;12:11:37;2.0.10.147;0;;-999999;20;10530;0;1;1573;12103;1;1;1;2;1;2;1;BlockProcFischi;BlockList;1;175;0;;-999999;13;14273;0;1;1838;16111;1;1;1;1;ProcFischi1;ListBlockFischi;36;1;1;0;0;3;Po5_B;75;2;op;3;2;46;1;36;2;0;TrialProc;1467;993;Po5_B;91;1576;1486;ListFischi1;0;;2;203;295057;10;13;1611;296668;427;1;1611;1;918;455;1184;1;1
