ExperimentName;Subject;Session;Clock.Information;DataFile.Basename;Display.RefreshRate;ExperimentVersion;Group;Name;RandomSeed;RuntimeVersion;RuntimeVersionExpected;SessionDate;SessionStartDateTimeUtc;SessionTime;StudioVersion;SyncEprimeKinB1.ACC;SyncEprimeKinB1.CRESP;SyncEprimeKinB1.DurationError;SyncEprimeKinB1.OnsetDelay;SyncEprimeKinB1.OnsetTime;SyncEprimeKinB1.OnsetToOnsetTime;SyncEprimeKinB1.RESP;SyncEprimeKinB1.RT;SyncEprimeKinB1.RTTime;Block;BlockINT_0Fischi_1Suoni;BlockList;BlockList.Cycle;BlockList.Sample;ContatoreSuoni;NumSuono;Procedure[Block];Running[Block];Suonilist;SuonoFinSoglia;SyncEprimeKinFischi1.ACC;SyncEprimeKinFischi1.CRESP;SyncEprimeKinFischi1.DurationError;SyncEprimeKinFischi1.OnsetDelay;SyncEprimeKinFischi1.OnsetTime;SyncEprimeKinFischi1.OnsetToOnsetTime;SyncEprimeKinFischi1.RESP;SyncEprimeKinFischi1.RT;SyncEprimeKinFischi1.RTTime;Trial;ListBlockFischi;ListBlockFischi.Cycle;ListBlockFischi.Sample;Procedure[Trial];Running[Trial];SubTrial;AccSogg1;Avatar_Giu1_Su2;CatchTrial_CORR;ContatoreFinestraSoglia;CorrectResponse;File_Name;FinestraSoglia;IdcondEEG;Istruzione;KeySoggetto1;KeySoggetto2;ListFischi1;ListFischi1.Cycle;ListFischi1.Sample;NumeroSuono;OP_UG;Procedure[SubTrial];Resoconto.RT;RTChange;RTimage;RTNetto;RTSubj;RTTouch;Running[SubTrial];StartGo.ACC;StartGo.CRESP;StartGo.DurationError;StartGo.OnsetDelay;StartGo.OnsetTime;StartGo.OnsetToOnsetTime;StartGo.RESP;StartGo.RT;StartGo.RTTime;StartSoggetto1;StartSoggetto2;StopSoggetto1;StopSoggetto2;StopTrial.RT;tempo;TMSoggetto1;ValiditaTrial;Vincitore
TMS_Ibrahim;59;2;"<?xml version=""1.0""?>\n<Clock xmlns:dt=""urn:schemas-microsoft-com:datatypes""><Description dt:dt=""string"">E-Prime Primary Realtime Clock</Description><StartTime><Timestamp dt:dt=""int"">0</Timestamp><DateUtc dt:dt=""string"">2023-11-14T10:50:49Z</DateUtc></StartTime><FrequencyChanges><FrequencyChange><Frequency dt:dt=""r8"">3221767</Frequency><Timestamp dt:dt=""r8"">22399545698</Timestamp><Current dt:dt=""r8"">0</Current><DateUtc dt:dt=""string"">2023-11-14T10:50:49Z</DateUtc></FrequencyChange></FrequencyChanges></Clock>\n";TMS_Ibrahim-59-2;60.015;1.0.0.561;1;v;925354408;2.0.10.356;2.0.10.242;11-14-2023;14/11/2023 10:50;11:50:50;2.0.10.147;0;;-999999;10;14988;0;1;1310;16298;1;1;1;2;1;2;1;BlockProcFischi;BlockList;1;175;0;;-999999;5;17767;0;1;291;18058;1;1;1;1;ProcFischi1;ListBlockFischi;1;1;1;0;0;5;Po5_B;250;4;ug;5;2;52;1;1;4;1;TrialProc;2085;1009;Po5_B;251;1761;1510;ListFischi1;0;;1;205;20327;16;15;1779;22106;387;1;1779;1;589;297;1392;1;1
TMS_Ibrahim;59;2;"<?xml version=""1.0""?>\n<Clock xmlns:dt=""urn:schemas-microsoft-com:datatypes""><Description dt:dt=""string"">E-Prime Primary Realtime Clock</Description><StartTime><Timestamp dt:dt=""int"">0</Timestamp><DateUtc dt:dt=""string"">2023-11-14T10:50:49Z</DateUtc></StartTime><FrequencyChanges><FrequencyChange><Frequency dt:dt=""r8"">3221767</Frequency><Timestamp dt:dt=""r8"">22399545698</Timestamp><Current dt:dt=""r8"">0</Current><DateUtc dt:dt=""string"">2023-11-14T10:50:49Z</DateUtc></FrequencyChange></FrequencyChanges></Clock>\n";TMS_Ibrahim-59-2;60.015;1.0.0.561;1;v;925354408;2.0.10.356;2.0.10.242;11-14-2023;14/11/2023 10:50;11:50:50;2.0.10.147;0;;-999999;10;14988;0;1;1310;16298;1;1;1;2;1;2;1;BlockProcFischi;BlockList;1;175;0;;-999999;5;17767;0;1;291;18058;1;1;1;1;ProcFischi1;ListBlockFischi;2;1;2;0;0;3;Pr2_B;250;3;ug;3;2;17;1;2;3;1;TrialProc;1736;755;Pr2_B;45;1334;1290;ListFischi1;0;;1;203;27362;29;13;1368;28730;440;1;1368;1;750;393;928;1;1
TMS_Ibrahim;59;2;"<?xml version=""1.0""?>\n<Clock xmlns:dt=""urn:schemas-microsoft-com:datatypes""><Description dt:dt=""string"">E-Prime Primary Realtime Clock</Description><StartTime><Timestamp dt:dt=""int"">0</Timestamp><DateUtc dt:dt=""string"">2023-11-14T10:50:49Z</DateUtc></StartTime><FrequencyChanges><FrequencyChange><Frequency dt:dt=""r8"">3221767</Frequency><Timestamp dt:dt=""r8"">22399545698</Timestamp><Current dt:dt=""r8"">0</Current><DateUtc dt:dt=""string"">2023-11-14T10:50:49Z</DateUtc></FrequencyChange></FrequencyChanges></Clock>\n";TMS_Ibrahim-59-2;60.015;1.0.0.561;1;v;925354408;2.0.10.356;2.0.10.242;11-14-2023;14/11/2023 10:50;11:50:50;2.0.10.147;0;;-999999;10;14988;0;1;1310;16298;1;1;1;2;1;2;1;BlockProcFischi;BlockList;1;175;0;;-999999;5;17767;0;1;291;18058;1;1;1;1;ProcFischi1;ListBlockFischi;3;1;1;0;0;3;Po4_B;250;2;op;3;2;40;1;3;2;0;TrialProc;1964;1371;Po4_B;287;1451;1738;ListFischi1;0;;0;205;34711;12;13;1475;36186;291;1;1475;1;488;352;1184;1;1
TMS_Ibrahim;59;2;"<?xml version=""1.0""?>\n<Clock xmlns:dt=""urn:schemas-microsoft-com:datatypes""><Description dt:dt=""string"">E-Prime Primary Realtime Clock</Description><StartTime><Timestamp dt:dt=""int"">0</Timestamp><DateUtc dt:dt=""string"">2023-11-14T10:50:49Z</DateUtc></StartTime><FrequencyChanges><FrequencyChange><Frequency dt:dt=""r8"">3221767</Frequency><Timestamp dt:dt=""r8"">22399545698</Timestamp><Current dt:dt=""r8"">0</Current><DateUtc dt:dt=""string"">2023-11-14T10:50:49Z</DateUtc></FrequencyChange></FrequencyChanges></Clock>\n";TMS_Ibrahim-59-2;60.015;1.0.0.561;1;v;925354408;2.0.10.356;2.0.10.242;11-14-2023;14/11/2023 10:50;11:50:50;2.0.10.147;0;;-999999;10;14988;0;1;1310;16298;1;1;1;2;1;2;1;BlockProcFischi;BlockList;1;175;0;;-999999;5;17767;0;1;291;18058;1;1;1;1;ProcFischi1;ListBlockFischi;4;1;2;1;0;5;Prmod_B;250;1;op;5;2;15;1;4;1;0;TrialProc;2264;1314;Prmod_B;209;1857;1648;ListFischi1;0;;1;205;42115;6;15;1879;43994;519;1;1879;1;750;392;1360;1;1
TMS_Ibrahim;59;2;"<?xml version=""1.0""?>\n<Clock xmlns:dt=""urn:schemas-microsoft-com:datatypes""><Description dt:dt=""string"">E-Prime Primary Realtime Clock</Description><StartTime><Timestamp dt:dt=""int"">0</Timestamp><DateUtc dt:dt=""string"">2023-11-14T10:50:49Z</DateUtc></StartTime><FrequencyChanges><FrequencyChange><Frequency dt:dt=""r8"">3221767</Frequency><Timestamp dt:dt=""r8"">22399545698</Timestamp><Current dt:dt=""r8"">0</Current><DateUtc dt:dt=""string"">2023-11-14T10:50:49Z</DateUtc></FrequencyChange></FrequencyChanges></Clock>\n";TMS_Ibrahim-59-2;60.015;1.0.0.561;1;v;925354408;2.0.10.356;2.0.10.242;11-14-2023;14/11/2023 10:50;11:50:50;2.0.10.147;0;;-999999;10;14988;0;1;1310;16298;1;1;1;2;1;2;1;BlockProcFischi;BlockList;1;175;0;;-999999;5;17767;0;1;291;18058;1;1;1;1;ProcFischi1;ListBlockFischi;5;1;1;0;0;5;Po5_B;250;4;ug;5;2;57;1;5;4;1;TrialProc;1746;992;Po5_B;328;1819;1491;ListFischi1;0;;0;211;49187;16;15;1847;51034;391;1;1847;1;987;205;1456;1;1
TMS_Ibrahim;59;2;"<?xml version=""1.0""?>\n<Clock xmlns:dt=""urn:schemas-microsoft-com:datatypes""><Description dt:dt=""string"">E-Prime Primary Realtime Clock</Description><StartTime><Timestamp dt:dt=""int"">0</Timestamp><DateUtc dt:dt=""string"">2023-11-14T10:50:49Z</DateUtc></StartTime><FrequencyChanges><FrequencyChange><Frequency dt:dt=""r8"">3221767</Frequency><Timestamp dt:dt=""r8"">22399545698</Timestamp><Current dt:dt=""r8"">0</Current><DateUtc dt:dt=""string"">2023-11-14T10:50:49Z</DateUtc></FrequencyChange></FrequencyChanges></Clock>\n";TMS_Ibrahim-59-2;60.015;1.0.0.561;1;v;925354408;2.0.10.356;2.0.10.242;11-14-2023;14/11/2023 10:50;11:50:50;2.0.10.147;0;;-999999;10;14988;0;1;1310;16298;1;1;1;2;1;2;1;BlockProcFischi;BlockList;1;175;0;;-999999;5;17767;0;1;291;18058;1;1;1;1;ProcFischi1;ListBlockFischi;6;1;2;0;0;3;Pr4_B;225;3;ug;3;2;29;1;6;3;1;TrialProc;1187;712;Pr4_B;75;1353;1277;ListFischi1;0;;0;204;56333;18;13;1373;57706;285;1;1373;1;662;451;1088;1;1
TMS_Ibrahim;59;2;"<?xml version=""1.0""?>\n<Clock xmlns:dt=""urn:schemas-microsoft-com:datatypes""><Description dt:dt=""string"">E-Prime Primary Realtime Clock</Description><StartTime><Timestamp dt:dt=""int"">0</Timestamp><DateUtc dt:dt=""string"">2023-11-14T10:50:49Z</DateUtc></StartTime><FrequencyChanges><FrequencyChange><Frequency dt:dt=""r8"">3221767</Frequency><Timestamp dt:dt=""r8"">22399545698</Timestamp><Current dt:dt=""r8"">0</Current><DateUtc dt:dt=""string"">2023-11-14T10:50:49Z</DateUtc></FrequencyChange></FrequencyChanges></Clock>\n";TMS_Ibrahim-59-2;60.015;1.0.0.561;1;v;925354408;2.0.10.356;2.0.10.242;11-14-2023;14/11/2023 10:50;11:50:50;2.0.10.147;0;;-999999;10;14988;0;1;1310;16298;1;1;1;2;1;2;1;BlockProcFischi;BlockList;1;175;0;;-999999;5;17767;0;1;291;18058;1;1;1;1;ProcFischi1;ListBlockFischi;7;1;2;0;0;5;Pr3_B;225;1;op;5;2;7;1;7;1;0;TrialProc;1180;724;Pr3_B;129;1594;1723;ListFischi1;0;;0;212;63619;13;15;1622;65241;182;1;1622;1;563;217;1440;1;1
TMS_Ibrahim;59;2;"<?xml version=""1.0""?>\n<Clock xmlns:dt=""urn:schemas-microsoft-com:datatypes""><Description dt:dt=""string"">E-Prime Primary Realtime Clock</Description><StartTime><Timestamp dt:dt=""int"">0</Timestamp><DateUtc dt:dt=""string"">2023-11-14T10:50:49Z</DateUtc></StartTime><FrequencyChanges><FrequencyChange><Frequency dt:dt=""r8"">3221767</Frequency><Timestamp dt:dt=""r8"">22399545698</Timestamp><Current dt:dt=""r8"">0</Current><DateUtc dt:dt=""string"">2023-11-14T10:50:49Z</DateUtc></FrequencyChange></FrequencyChanges></Clock>\n";TMS_Ibrahim-59-2;60.015;1.0.0.561;1;v;925354408;2.0.10.356;2.0.10.242;11-14-2023;14/11/2023 10:50;11:50:50;2.0.10.147;0;;-999999;10;14988;0;1;1310;16298;1;1;1;2;1;2;1;BlockProcFischi;BlockList;1;175;0;;-999999;5;17767;0;1;291;18058;1;1;1;1;ProcFischi1;ListBlockFischi;8;1;2;0;0;5;Pr3_B;200;1;op;5;2;12;1;8;1;0;TrialProc;1413;735;Pr3_B;83;1818;1735;ListFischi1;0;;0;213;71038;26;15;1851;72889;139;1;1851;1;755;238;1712;1;1
TMS_Ibrahim;59;2;"<?xml version=""1.0""?>\n<Clock xmlns:dt=""urn:schemas-microsoft-com:datatypes""><Description dt:dt=""string"">E-Prime Primary Realtime Clock</Description><StartTime><Timestamp dt:dt=""int"">0</Timestamp><DateUtc dt:dt=""string"">2023-11-14T10:50:49Z</DateUtc></StartTime><FrequencyChanges><FrequencyChange><Frequency dt:dt=""r8"">3221767</Frequency><Timestamp dt:dt=""r8"">22399545698</Timestamp><Current dt:dt=""r8"">0</Current><DateUtc dt:dt=""string"">2023-11-14T10:50:49Z</DateUtc></FrequencyChange></FrequencyChanges></Clock>\n";TMS_Ibrahim-59-2;60.015;1.0.0.561;1;v;925354408;2.0.10.356;2.0.10.242;11-14-2023;14/11/2023 10:50;11:50:50;2.0.10.147;0;;-999999;10;14988;0;1;1310;16298;1;1;1;2;1;2;1;BlockProcFischi;BlockList;1;175;0;;-999999;5;17767;0;1;291;18058;1;1;1;1;ProcFischi1;ListBlockFischi;9;1;1;0;1;3;Po2_B;250;2;op;3;2;43;1;9;2;0;TrialProc;1646;1591;Po2_B;9;1834;1824;ListFischi1;0;;0;213;78097;15;13;1863;79960;216;1;1863;1;607;330;1647;1;1
TMS_Ibrahim;59;2;"<?xml version=""1.0""?>\n<Clock xmlns:dt=""urn:schemas-microsoft-com:datatypes""><Description dt:dt=""string"">E-Prime Primary Realtime Clock</Description><StartTime><Timestamp dt:dt=""int"">0</Timestamp><DateUtc dt:dt=""string"">2023-11-14T10:50:49Z</DateUtc></StartTime><FrequencyChanges><FrequencyChange><Frequency dt:dt=""r8"">3221767</Frequency><Timestamp dt:dt=""r8"">22399545698</Timestamp><Current dt:dt=""r8"">0</Current><DateUtc dt:dt=""string"">2023-11-14T10:50:49Z</DateUtc></FrequencyChange></FrequencyChanges></Clock>\n";TMS_Ibrahim-59-2;60.015;1.0.0.561;1;v;925354408;2.0.10.356;2.0.10.242;11-14-2023;14/11/2023 10:50;11:50:50;2.0.10.147;0;;-999999;10;14988;0;1;1310;16298;1;1;1;2;1;2;1;BlockProcFischi;BlockList;1;175;0;;-999999;5;17767;0;1;291;18058;1;1;1;1;ProcFischi1;ListBlockFischi;10;1;2;0;0;5;Pr2_B;175;1;op;5;2;11;1;10;1;0;TrialProc;1170;732;Pr2_B;158;1106;1264;ListFischi1;0;;1;210;85304;23;15;1137;86441;241;1;1137;1;519;577;896;1;1
TMS_Ibrahim;59;2;"<?xml version=""1.0""?>\n<Clock xmlns:dt=""urn:schemas-microsoft-com:datatypes""><Description dt:dt=""string"">E-Prime Primary Realtime Clock</Description><StartTime><Timestamp dt:dt=""int"">0</Timestamp><DateUtc dt:dt=""string"">2023-11-14T10:50:49Z</DateUtc></StartTime><FrequencyChanges><FrequencyChange><Frequency dt:dt=""r8"">3221767</Frequency><Timestamp dt:dt=""r8"">22399545698</Timestamp><Current dt:dt=""r8"">0</Current><DateUtc dt:dt=""string"">2023-11-14T10:50:49Z</DateUtc></FrequencyChange></FrequencyChanges></Clock>\n";TMS_Ibrahim-59-2;60.015;1.0.0.561;1;v;925354408;2.0.10.356;2.0.10.242;11-14-2023;14/11/2023 10:50;11:50:50;2.0.10.147;0;;-999999;10;14988;0;1;1310;16298;1;1;1;2;1;2;1;BlockProcFischi;BlockList;1;175;0;;-999999;5;17767;0;1;291;18058;1;1;1;1;ProcFischi1;ListBlockFischi;11;1;2;0;0;5;Pr4_B;175;1;op;5;2;8;1;11;1;0;TrialProc;1231;694;Pr4_B;150;1409;1260;ListFischi1;0;;1;203;92557;18;15;1436;93993;412;1;1436;1;582;336;1024;1;1
TMS_Ibrahim;59;2;"<?xml version=""1.0""?>\n<Clock xmlns:dt=""urn:schemas-microsoft-com:datatypes""><Description dt:dt=""string"">E-Prime Primary Realtime Clock</Description><StartTime><Timestamp dt:dt=""int"">0</Timestamp><DateUtc dt:dt=""string"">2023-11-14T10:50:49Z</DateUtc></StartTime><FrequencyChanges><FrequencyChange><Frequency dt:dt=""r8"">3221767</Frequency><Timestamp dt:dt=""r8"">22399545698</Timestamp><Current dt:dt=""r8"">0</Current><DateUtc dt:dt=""string"">2023-11-14T10:50:49Z</DateUtc></FrequencyChange></FrequencyChanges></Clock>\n";TMS_Ibrahim-59-2;60.015;1.0.0.561;1;v;925354408;2.0.10.356;2.0.10.242;11-14-2023;14/11/2023 10:50;11:50:50;2.0.10.147;0;;-999999;10;14988;0;1;1310;16298;1;1;1;2;1;2;1;BlockProcFischi;BlockList;1;175;0;;-999999;5;17767;0;1;291;18058;1;1;1;1;ProcFischi1;ListBlockFischi;12;0;1;0;1;5;Po3_B;;4;ug;3;2;60;1;12;4;1;TrialProc;1784;1328;Po3_B;11;1606;1595;ListFischi1;0;;0;204;99538;19;13;1639;101177;550;1;1639;1;484;458;1089;1;0
TMS_Ibrahim;59;2;"<?xml version=""1.0""?>\n<Clock xmlns:dt=""urn:schemas-microsoft-com:datatypes""><Description dt:dt=""string"">E-Prime Primary Realtime Clock</Description><StartTime><Timestamp dt:dt=""int"">0</Timestamp><DateUtc dt:dt=""string"">2023-11-14T10:50:49Z</DateUtc></StartTime><FrequencyChanges><FrequencyChange><Frequency dt:dt=""r8"">3221767</Frequency><Timestamp dt:dt=""r8"">22399545698</Timestamp><Current dt:dt=""r8"">0</Current><DateUtc dt:dt=""string"">2023-11-14T10:50:49Z</DateUtc></FrequencyChange></FrequencyChanges></Clock>\n";TMS_Ibrahim-59-2;60.015;1.0.0.561;1;v;925354408;2.0.10.356;2.0.10.242;11-14-2023;14/11/2023 10:50;11:50:50;2.0.10.147;0;;-999999;10;14988;0;1;1310;16298;1;1;1;2;1;2;1;BlockProcFischi;BlockList;1;175;0;;-999999;5;17767;0;1;291;18058;1;1;1;1;ProcFischi1;ListBlockFischi;13;1;2;0;0;3;Pr5_B;200;3;ug;3;2;30;1;13;3;1;TrialProc;1379;692;Pr5_B;109;1401;1292;ListFischi1;0;;1;203;106605;17;13;1436;108041;172;1;1436;1;679;293;1264;1;1
TMS_Ibrahim;59;2;"<?xml version=""1.0""?>\n<Clock xmlns:dt=""urn:schemas-microsoft-com:datatypes""><Description dt:dt=""string"">E-Prime Primary Realtime Clock</Description><StartTime><Timestamp dt:dt=""int"">0</Timestamp><DateUtc dt:dt=""string"">2023-11-14T10:50:49Z</DateUtc></StartTime><FrequencyChanges><FrequencyChange><Frequency dt:dt=""r8"">3221767</Frequency><Timestamp dt:dt=""r8"">22399545698</Timestamp><Current dt:dt=""r8"">0</Current><DateUtc dt:dt=""string"">2023-11-14T10:50:49Z</DateUtc></FrequencyChange></FrequencyChanges></Clock>\n";TMS_Ibrahim-59-2;60.015;1.0.0.561;1;v;925354408;2.0.10.356;2.0.10.242;11-14-2023;14/11/2023 10:50;11:50:50;2.0.10.147;0;;-999999;10;14988;0;1;1310;16298;1;1;1;2;1;2;1;BlockProcFischi;BlockList;1;175;0;;-999999;5;17767;0;1;291;18058;1;1;1;1;ProcFischi1;ListBlockFischi;14;1;2;1;0;3;Prmod_B;175;3;ug;3;2;32;1;14;3;1;TrialProc;1225;1316;Prmod_B;297;1946;1650;ListFischi1;0;;1;204;113613;7;13;1980;115593;556;1;1980;1;1026;519;1424;1;1
TMS_Ibrahim;59;2;"<?xml version=""1.0""?>\n<Clock xmlns:dt=""urn:schemas-microsoft-com:datatypes""><Description dt:dt=""string"">E-Prime Primary Realtime Clock</Description><StartTime><Timestamp dt:dt=""int"">0</Timestamp><DateUtc dt:dt=""string"">2023-11-14T10:50:49Z</DateUtc></StartTime><FrequencyChanges><FrequencyChange><Frequency dt:dt=""r8"">3221767</Frequency><Timestamp dt:dt=""r8"">22399545698</Timestamp><Current dt:dt=""r8"">0</Current><DateUtc dt:dt=""string"">2023-11-14T10:50:49Z</DateUtc></FrequencyChange></FrequencyChanges></Clock>\n";TMS_Ibrahim-59-2;60.015;1.0.0.561;1;v;925354408;2.0.10.356;2.0.10.242;11-14-2023;14/11/2023 10:50;11:50:50;2.0.10.147;0;;-999999;10;14988;0;1;1310;16298;1;1;1;2;1;2;1;BlockProcFischi;BlockList;1;175;0;;-999999;5;17767;0;1;291;18058;1;1;1;1;ProcFischi1;ListBlockFischi;15;1;1;0;1;5;Po4_B;250;4;ug;5;2;56;1;15;4;1;TrialProc;1761;1353;Po4_B;157;1876;1719;ListFischi1;0;;1;209;121292;9;15;1901;123193;717;1;1901;1;510;400;1184;1;1
TMS_Ibrahim;59;2;"<?xml version=""1.0""?>\n<Clock xmlns:dt=""urn:schemas-microsoft-com:datatypes""><Description dt:dt=""string"">E-Prime Primary Realtime Clock</Description><StartTime><Timestamp dt:dt=""int"">0</Timestamp><DateUtc dt:dt=""string"">2023-11-14T10:50:49Z</DateUtc></StartTime><FrequencyChanges><FrequencyChange><Frequency dt:dt=""r8"">3221767</Frequency><Timestamp dt:dt=""r8"">22399545698</Timestamp><Current dt:dt=""r8"">0</Current><DateUtc dt:dt=""string"">2023-11-14T10:50:49Z</DateUtc></FrequencyChange></FrequencyChanges></Clock>\n";TMS_Ibrahim-59-2;60.015;1.0.0.561;1;v;925354408;2.0.10.356;2.0.10.242;11-14-2023;14/11/2023 10:50;11:50:50;2.0.10.147;0;;-999999;10;14988;0;1;1310;16298;1;1;1;2;1;2;1;BlockProcFischi;BlockList;1;175;0;;-999999;5;17767;0;1;291;18058;1;1;1;1;ProcFischi1;ListBlockFischi;16;0;1;0;0;5;Po5_B;;4;ug;0;2;62;1;16;4;1;TrialProc;2037;990;Po5_B;670;2161;1491;ListFischi1;0;;1;212;128185;14;5;2192;130377;1;1;1;1;773;410;0;0;0
TMS_Ibrahim;59;2;"<?xml version=""1.0""?>\n<Clock xmlns:dt=""urn:schemas-microsoft-com:datatypes""><Description dt:dt=""string"">E-Prime Primary Realtime Clock</Description><StartTime><Timestamp dt:dt=""int"">0</Timestamp><DateUtc dt:dt=""string"">2023-11-14T10:50:49Z</DateUtc></StartTime><FrequencyChanges><FrequencyChange><Frequency dt:dt=""r8"">3221767</Frequency><Timestamp dt:dt=""r8"">22399545698</Timestamp><Current dt:dt=""r8"">0</Current><DateUtc dt:dt=""string"">2023-11-14T10:50:49Z</DateUtc></FrequencyChange></FrequencyChanges></Clock>\n";TMS_Ibrahim-59-2;60.015;1.0.0.561;1;v;925354408;2.0.10.356;2.0.10.242;11-14-2023;14/11/2023 10:50;11:50:50;2.0.10.147;0;;-999999;10;14988;0;1;1310;16298;1;1;1;2;1;2;1;BlockProcFischi;BlockList;1;175;0;;-999999;5;17767;0;1;291;18058;1;1;1;1;ProcFischi1;ListBlockFischi;17;1;1;0;0;5;Po8_B;225;4;ug;5;2;53;1;17;4;1;TrialProc;967;1269;Po8_B;64;1668;1604;ListFischi1;0;;1;213;134953;28;15;1695;136648;591;1;1695;1;674;229;1104;1;1
TMS_Ibrahim;59;2;"<?xml version=""1.0""?>\n<Clock xmlns:dt=""urn:schemas-microsoft-com:datatypes""><Description dt:dt=""string"">E-Prime Primary Realtime Clock</Description><StartTime><Timestamp dt:dt=""int"">0</Timestamp><DateUtc dt:dt=""string"">2023-11-14T10:50:49Z</DateUtc></StartTime><FrequencyChanges><FrequencyChange><Frequency dt:dt=""r8"">3221767</Frequency><Timestamp dt:dt=""r8"">22399545698</Timestamp><Current dt:dt=""r8"">0</Current><DateUtc dt:dt=""string"">2023-11-14T10:50:49Z</DateUtc></FrequencyChange></FrequencyChanges></Clock>\n";TMS_Ibrahim-59-2;60.015;1.0.0.561;1;v;925354408;2.0.10.356;2.0.10.242;11-14-2023;14/11/2023 10:50;11:50:50;2.0.10.147;0;;-999999;10;14988;0;1;1310;16298;1;1;1;2;1;2;1;BlockProcFischi;BlockList;1;175;0;;-999999;5;17767;0;1;291;18058;1;1;1;1;ProcFischi1;ListBlockFischi;18;1;1;0;0;3;Po5_B;225;2;op;3;2;41;1;18;2;0;TrialProc;1200;990;Po5_B;3;1493;1490;ListFischi1;0;;1;213;142281;15;133;1903;144184;494;1;1519;1;483;558;1025;1;1
TMS_Ibrahim;59;2;"<?xml version=""1.0""?>\n<Clock xmlns:dt=""urn:schemas-microsoft-com:datatypes""><Description dt:dt=""string"">E-Prime Primary Realtime Clock</Description><StartTime><Timestamp dt:dt=""int"">0</Timestamp><DateUtc dt:dt=""string"">2023-11-14T10:50:49Z</DateUtc></StartTime><FrequencyChanges><FrequencyChange><Frequency dt:dt=""r8"">3221767</Frequency><Timestamp dt:dt=""r8"">22399545698</Timestamp><Current dt:dt=""r8"">0</Current><DateUtc dt:dt=""string"">2023-11-14T10:50:49Z</DateUtc></FrequencyChange></FrequencyChanges></Clock>\n";TMS_Ibrahim-59-2;60.015;1.0.0.561;1;v;925354408;2.0.10.356;2.0.10.242;11-14-2023;14/11/2023 10:50;11:50:50;2.0.10.147;0;;-999999;10;14988;0;1;1310;16298;1;1;1;2;1;2;1;BlockProcFischi;BlockList;1;175;0;;-999999;5;17767;0;1;291;18058;1;1;1;1;ProcFischi1;ListBlockFischi;19;1;2;0;0;5;Pr5_B;175;1;op;5;2;4;1;19;1;0;TrialProc;950;692;Pr5_B;93;1384;1291;ListFischi1;0;;1;204;149362;15;15;1414;150776;358;1;1414;1;674;252;1056;1;1
TMS_Ibrahim;59;2;"<?xml version=""1.0""?>\n<Clock xmlns:dt=""urn:schemas-microsoft-com:datatypes""><Description dt:dt=""string"">E-Prime Primary Realtime Clock</Description><StartTime><Timestamp dt:dt=""int"">0</Timestamp><DateUtc dt:dt=""string"">2023-11-14T10:50:49Z</DateUtc></StartTime><FrequencyChanges><FrequencyChange><Frequency dt:dt=""r8"">3221767</Frequency><Timestamp dt:dt=""r8"">22399545698</Timestamp><Current dt:dt=""r8"">0</Current><DateUtc dt:dt=""string"">2023-11-14T10:50:49Z</DateUtc></FrequencyChange></FrequencyChanges></Clock>\n";TMS_Ibrahim-59-2;60.015;1.0.0.561;1;v;925354408;2.0.10.356;2.0.10.242;11-14-2023;14/11/2023 10:50;11:50:50;2.0.10.147;0;;-999999;10;14988;0;1;1310;16298;1;1;1;2;1;2;1;BlockProcFischi;BlockList;1;175;0;;-999999;5;17767;0;1;291;18058;1;1;1;1;ProcFischi1;ListBlockFischi;20;1;1;0;0;3;Po3_B;200;2;op;3;2;39;1;20;2;0;TrialProc;1222;1327;Po3_B;57;1538;1594;ListFischi1;0;;1;209;156456;20;13;1568;158024;368;1;1568;1;732;273;1200;1;1
TMS_Ibrahim;59;2;"<?xml version=""1.0""?>\n<Clock xmlns:dt=""urn:schemas-microsoft-com:datatypes""><Description dt:dt=""string"">E-Prime Primary Realtime Clock</Description><StartTime><Timestamp dt:dt=""int"">0</Timestamp><DateUtc dt:dt=""string"">2023-11-14T10:50:49Z</DateUtc></StartTime><FrequencyChanges><FrequencyChange><Frequency dt:dt=""r8"">3221767</Frequency><Timestamp dt:dt=""r8"">22399545698</Timestamp><Current dt:dt=""r8"">0</Current><DateUtc dt:dt=""string"">2023-11-14T10:50:49Z</DateUtc></FrequencyChange></FrequencyChanges></Clock>\n";TMS_Ibrahim-59-2;60.015;1.0.0.561;1;v;925354408;2.0.10.356;2.0.10.242;11-14-2023;14/11/2023 10:50;11:50:50;2.0.10.147;0;;-999999;10;14988;0;1;1310;16298;1;1;1;2;1;2;1;BlockProcFischi;BlockList;1;175;0;;-999999;5;17767;0;1;291;18058;1;1;1;1;ProcFischi1;ListBlockFischi;21;1;1;0;0;5;Po3_B;200;4;ug;5;2;50;1;21;4;1;TrialProc;1098;1327;Po3_B;21;1616;1594;ListFischi1;0;;0;214;163590;17;15;1634;165224;850;1;1634;1;752;579;784;1;1
TMS_Ibrahim;59;2;"<?xml version=""1.0""?>\n<Clock xmlns:dt=""urn:schemas-microsoft-com:datatypes""><Description dt:dt=""string"">E-Prime Primary Realtime Clock</Description><StartTime><Timestamp dt:dt=""int"">0</Timestamp><DateUtc dt:dt=""string"">2023-11-14T10:50:49Z</DateUtc></StartTime><FrequencyChanges><FrequencyChange><Frequency dt:dt=""r8"">3221767</Frequency><Timestamp dt:dt=""r8"">22399545698</Timestamp><Current dt:dt=""r8"">0</Current><DateUtc dt:dt=""string"">2023-11-14T10:50:49Z</DateUtc></FrequencyChange></FrequencyChanges></Clock>\n";TMS_Ibrahim-59-2;60.015;1.0.0.561;1;v;925354408;2.0.10.356;2.0.10.242;11-14-2023;14/11/2023 10:50;11:50:50;2.0.10.147;0;;-999999;10;14988;0;1;1310;16298;1;1;1;2;1;2;1;BlockProcFischi;BlockList;1;175;0;;-999999;5;17767;0;1;291;18058;1;1;1;1;ProcFischi1;ListBlockFischi;22;1;2;0;1;3;Pr8_B;175;3;ug;3;2;26;1;22;3;1;TrialProc;1400;725;Pr8_B;16;1773;1758;ListFischi1;0;;0;204;170658;14;13;1798;172456;310;1;1798;1;616;397;1488;1;1
TMS_Ibrahim;59;2;"<?xml version=""1.0""?>\n<Clock xmlns:dt=""urn:schemas-microsoft-com:datatypes""><Description dt:dt=""string"">E-Prime Primary Realtime Clock</Description><StartTime><Timestamp dt:dt=""int"">0</Timestamp><DateUtc dt:dt=""string"">2023-11-14T10:50:49Z</DateUtc></StartTime><FrequencyChanges><FrequencyChange><Frequency dt:dt=""r8"">3221767</Frequency><Timestamp dt:dt=""r8"">22399545698</Timestamp><Current dt:dt=""r8"">0</Current><DateUtc dt:dt=""string"">2023-11-14T10:50:49Z</DateUtc></FrequencyChange></FrequencyChanges></Clock>\n";TMS_Ibrahim-59-2;60.015;1.0.0.561;1;v;925354408;2.0.10.356;2.0.10.242;11-14-2023;14/11/2023 10:50;11:50:50;2.0.10.147;0;;-999999;10;14988;0;1;1310;16298;1;1;1;2;1;2;1;BlockProcFischi;BlockList;1;175;0;;-999999;5;17767;0;1;291;18058;1;1;1;1;ProcFischi1;ListBlockFischi;23;1;1;1;0;5;Pomod_B;175;4;ug;5;2;64;1;23;4;1;TrialProc;920;1336;Pomod_B;647;2348;1702;ListFischi1;0;;1;212;177944;26;15;2368;180312;576;1;2368;1;833;460;1792;1;1
TMS_Ibrahim;59;2;"<?xml version=""1.0""?>\n<Clock xmlns:dt=""urn:schemas-microsoft-com:datatypes""><Description dt:dt=""string"">E-Prime Primary Realtime Clock</Description><StartTime><Timestamp dt:dt=""int"">0</Timestamp><DateUtc dt:dt=""string"">2023-11-14T10:50:49Z</DateUtc></StartTime><FrequencyChanges><FrequencyChange><Frequency dt:dt=""r8"">3221767</Frequency><Timestamp dt:dt=""r8"">22399545698</Timestamp><Current dt:dt=""r8"">0</Current><DateUtc dt:dt=""string"">2023-11-14T10:50:49Z</DateUtc></FrequencyChange></FrequencyChanges></Clock>\n";TMS_Ibrahim-59-2;60.015;1.0.0.561;1;v;925354408;2.0.10.356;2.0.10.242;11-14-2023;14/11/2023 10:50;11:50:50;2.0.10.147;0;;-999999;10;14988;0;1;1310;16298;1;1;1;2;1;2;1;BlockProcFischi;BlockList;1;175;0;;-999999;5;17767;0;1;291;18058;1;1;1;1;ProcFischi1;ListBlockFischi;24;1;2;0;0;3;Pr2_B;150;3;ug;3;2;22;1;24;3;1;TrialProc;1274;731;Pr2_B;118;1383;1264;ListFischi1;0;;0;210;184380;22;13;1404;185784;460;1;1404;1;811;398;944;1;1
TMS_Ibrahim;59;2;"<?xml version=""1.0""?>\n<Clock xmlns:dt=""urn:schemas-microsoft-com:datatypes""><Description dt:dt=""string"">E-Prime Primary Realtime Clock</Description><StartTime><Timestamp dt:dt=""int"">0</Timestamp><DateUtc dt:dt=""string"">2023-11-14T10:50:49Z</DateUtc></StartTime><FrequencyChanges><FrequencyChange><Frequency dt:dt=""r8"">3221767</Frequency><Timestamp dt:dt=""r8"">22399545698</Timestamp><Current dt:dt=""r8"">0</Current><DateUtc dt:dt=""string"">2023-11-14T10:50:49Z</DateUtc></FrequencyChange></FrequencyChanges></Clock>\n";TMS_Ibrahim-59-2;60.015;1.0.0.561;1;v;925354408;2.0.10.356;2.0.10.242;11-14-2023;14/11/2023 10:50;11:50:50;2.0.10.147;0;;-999999;10;14988;0;1;1310;16298;1;1;1;2;1;2;1;BlockProcFischi;BlockList;1;175;0;;-999999;5;17767;0;1;291;18058;1;1;1;1;ProcFischi1;ListBlockFischi;25;1;2;0;0;5;Pr8_B;150;1;op;5;2;10;1;25;1;0;TrialProc;1184;736;Pr8_B;147;1916;1769;ListFischi1;0;;0;211;191790;27;15;1946;193736;570;1;1946;1;800;499;1376;1;1
TMS_Ibrahim;59;2;"<?xml version=""1.0""?>\n<Clock xmlns:dt=""urn:schemas-microsoft-com:datatypes""><Description dt:dt=""string"">E-Prime Primary Realtime Clock</Description><StartTime><Timestamp dt:dt=""int"">0</Timestamp><DateUtc dt:dt=""string"">2023-11-14T10:50:49Z</DateUtc></StartTime><FrequencyChanges><FrequencyChange><Frequency dt:dt=""r8"">3221767</Frequency><Timestamp dt:dt=""r8"">22399545698</Timestamp><Current dt:dt=""r8"">0</Current><DateUtc dt:dt=""string"">2023-11-14T10:50:49Z</DateUtc></FrequencyChange></FrequencyChanges></Clock>\n";TMS_Ibrahim-59-2;60.015;1.0.0.561;1;v;925354408;2.0.10.356;2.0.10.242;11-14-2023;14/11/2023 10:50;11:50:50;2.0.10.147;0;;-999999;10;14988;0;1;1310;16298;1;1;1;2;1;2;1;BlockProcFischi;BlockList;1;175;0;;-999999;5;17767;0;1;291;18058;1;1;1;1;ProcFischi1;ListBlockFischi;26;1;1;1;0;3;Pomod_B;175;2;op;3;2;47;1;26;2;0;TrialProc;1024;1319;Pomod_B;133;1816;1684;ListFischi1;0;;1;203;198923;9;1333;2941;201864;412;1;1837;1;600;301;1425;1;1
TMS_Ibrahim;59;2;"<?xml version=""1.0""?>\n<Clock xmlns:dt=""urn:schemas-microsoft-com:datatypes""><Description dt:dt=""string"">E-Prime Primary Realtime Clock</Description><StartTime><Timestamp dt:dt=""int"">0</Timestamp><DateUtc dt:dt=""string"">2023-11-14T10:50:49Z</DateUtc></StartTime><FrequencyChanges><FrequencyChange><Frequency dt:dt=""r8"">3221767</Frequency><Timestamp dt:dt=""r8"">22399545698</Timestamp><Current dt:dt=""r8"">0</Current><DateUtc dt:dt=""string"">2023-11-14T10:50:49Z</DateUtc></FrequencyChange></FrequencyChanges></Clock>\n";TMS_Ibrahim-59-2;60.015;1.0.0.561;1;v;925354408;2.0.10.356;2.0.10.242;11-14-2023;14/11/2023 10:50;11:50:50;2.0.10.147;0;;-999999;10;14988;0;1;1310;16298;1;1;1;2;1;2;1;BlockProcFischi;BlockList;1;175;0;;-999999;5;17767;0;1;291;18058;1;1;1;1;ProcFischi1;ListBlockFischi;27;1;2;0;0;5;Pr8_B;150;1;op;5;2;5;1;27;1;0;TrialProc;1490;722;Pr8_B;161;1915;1755;ListFischi1;0;;1;209;205001;12;15;1935;206936;207;1;1935;1;802;472;1728;1;1
TMS_Ibrahim;59;2;"<?xml version=""1.0""?>\n<Clock xmlns:dt=""urn:schemas-microsoft-com:datatypes""><Description dt:dt=""string"">E-Prime Primary Realtime Clock</Description><StartTime><Timestamp dt:dt=""int"">0</Timestamp><DateUtc dt:dt=""string"">2023-11-14T10:50:49Z</DateUtc></StartTime><FrequencyChanges><FrequencyChange><Frequency dt:dt=""r8"">3221767</Frequency><Timestamp dt:dt=""r8"">22399545698</Timestamp><Current dt:dt=""r8"">0</Current><DateUtc dt:dt=""string"">2023-11-14T10:50:49Z</DateUtc></FrequencyChange></FrequencyChanges></Clock>\n";TMS_Ibrahim-59-2;60.015;1.0.0.561;1;v;925354408;2.0.10.356;2.0.10.242;11-14-2023;14/11/2023 10:50;11:50:50;2.0.10.147;0;;-999999;10;14988;0;1;1310;16298;1;1;1;2;1;2;1;BlockProcFischi;BlockList;1;175;0;;-999999;5;17767;0;1;291;18058;1;1;1;1;ProcFischi1;ListBlockFischi;28;1;1;1;0;3;Pomod_B;150;2;op;3;2;48;1;28;2;0;TrialProc;1131;1324;Pomod_B;114;1805;1691;ListFischi1;0;;0;205;212130;15;13;1829;213959;437;1;1829;1;745;254;1392;1;1
TMS_Ibrahim;59;2;"<?xml version=""1.0""?>\n<Clock xmlns:dt=""urn:schemas-microsoft-com:datatypes""><Description dt:dt=""string"">E-Prime Primary Realtime Clock</Description><StartTime><Timestamp dt:dt=""int"">0</Timestamp><DateUtc dt:dt=""string"">2023-11-14T10:50:49Z</DateUtc></StartTime><FrequencyChanges><FrequencyChange><Frequency dt:dt=""r8"">3221767</Frequency><Timestamp dt:dt=""r8"">22399545698</Timestamp><Current dt:dt=""r8"">0</Current><DateUtc dt:dt=""string"">2023-11-14T10:50:49Z</DateUtc></FrequencyChange></FrequencyChanges></Clock>\n";TMS_Ibrahim-59-2;60.015;1.0.0.561;1;v;925354408;2.0.10.356;2.0.10.242;11-14-2023;14/11/2023 10:50;11:50:50;2.0.10.147;0;;-999999;10;14988;0;1;1310;16298;1;1;1;2;1;2;1;BlockProcFischi;BlockList;1;175;0;;-999999;5;17767;0;1;291;18058;1;1;1;1;ProcFischi1;ListBlockFischi;29;0;1;1;1;5;Pomod_B;;4;ug;3;2;63;1;29;4;1;TrialProc;1796;1323;Pomod_B;90;1781;1690;ListFischi1;0;;1;213;219361;16;13;1814;221175;790;1;1814;1;722;564;1024;1;0
TMS_Ibrahim;59;2;"<?xml version=""1.0""?>\n<Clock xmlns:dt=""urn:schemas-microsoft-com:datatypes""><Description dt:dt=""string"">E-Prime Primary Realtime Clock</Description><StartTime><Timestamp dt:dt=""int"">0</Timestamp><DateUtc dt:dt=""string"">2023-11-14T10:50:49Z</DateUtc></StartTime><FrequencyChanges><FrequencyChange><Frequency dt:dt=""r8"">3221767</Frequency><Timestamp dt:dt=""r8"">22399545698</Timestamp><Current dt:dt=""r8"">0</Current><DateUtc dt:dt=""string"">2023-11-14T10:50:49Z</DateUtc></FrequencyChange></FrequencyChanges></Clock>\n";TMS_Ibrahim-59-2;60.015;1.0.0.561;1;v;925354408;2.0.10.356;2.0.10.242;11-14-2023;14/11/2023 10:50;11:50:50;2.0.10.147;0;;-999999;10;14988;0;1;1310;16298;1;1;1;2;1;2;1;BlockProcFischi;BlockList;1;175;0;;-999999;5;17767;0;1;291;18058;1;1;1;1;ProcFischi1;ListBlockFischi;30;1;1;0;1;5;Po2_B;175;4;ug;5;2;49;1;30;4;1;TrialProc;1275;1600;Po2_B;83;1916;1833;ListFischi1;0;;0;214;226551;24;15;1936;228487;304;1;1936;1;686;571;1632;1;1
TMS_Ibrahim;59;2;"<?xml version=""1.0""?>\n<Clock xmlns:dt=""urn:schemas-microsoft-com:datatypes""><Description dt:dt=""string"">E-Prime Primary Realtime Clock</Description><StartTime><Timestamp dt:dt=""int"">0</Timestamp><DateUtc dt:dt=""string"">2023-11-14T10:50:49Z</DateUtc></StartTime><FrequencyChanges><FrequencyChange><Frequency dt:dt=""r8"">3221767</Frequency><Timestamp dt:dt=""r8"">22399545698</Timestamp><Current dt:dt=""r8"">0</Current><DateUtc dt:dt=""string"">2023-11-14T10:50:49Z</DateUtc></FrequencyChange></FrequencyChanges></Clock>\n";TMS_Ibrahim-59-2;60.015;1.0.0.561;1;v;925354408;2.0.10.356;2.0.10.242;11-14-2023;14/11/2023 10:50;11:50:50;2.0.10.147;0;;-999999;10;14988;0;1;1310;16298;1;1;1;2;1;2;1;BlockProcFischi;BlockList;1;175;0;;-999999;5;17767;0;1;291;18058;1;1;1;1;ProcFischi1;ListBlockFischi;31;1;2;0;0;5;Pr3_B;150;1;op;5;2;2;1;31;1;0;TrialProc;1279;732;Pr3_B;652;2384;1732;ListFischi1;0;;1;211;233698;25;15;2405;236103;85;1;2405;1;982;587;2320;1;1
TMS_Ibrahim;59;2;"<?xml version=""1.0""?>\n<Clock xmlns:dt=""urn:schemas-microsoft-com:datatypes""><Description dt:dt=""string"">E-Prime Primary Realtime Clock</Description><StartTime><Timestamp dt:dt=""int"">0</Timestamp><DateUtc dt:dt=""string"">2023-11-14T10:50:49Z</DateUtc></StartTime><FrequencyChanges><FrequencyChange><Frequency dt:dt=""r8"">3221767</Frequency><Timestamp dt:dt=""r8"">22399545698</Timestamp><Current dt:dt=""r8"">0</Current><DateUtc dt:dt=""string"">2023-11-14T10:50:49Z</DateUtc></FrequencyChange></FrequencyChanges></Clock>\n";TMS_Ibrahim-59-2;60.015;1.0.0.561;1;v;925354408;2.0.10.356;2.0.10.242;11-14-2023;14/11/2023 10:50;11:50:50;2.0.10.147;0;;-999999;10;14988;0;1;1310;16298;1;1;1;2;1;2;1;BlockProcFischi;BlockList;1;175;0;;-999999;5;17767;0;1;291;18058;1;1;1;1;ProcFischi1;ListBlockFischi;32;1;2;0;0;3;Pr2_B;125;3;ug;3;2;27;1;32;3;1;TrialProc;978;724;Pr2_B;180;1437;1257;ListFischi1;0;;1;211;240073;15;13;1470;241543;542;1;1470;1;852;214;928;1;1
TMS_Ibrahim;59;2;"<?xml version=""1.0""?>\n<Clock xmlns:dt=""urn:schemas-microsoft-com:datatypes""><Description dt:dt=""string"">E-Prime Primary Realtime Clock</Description><StartTime><Timestamp dt:dt=""int"">0</Timestamp><DateUtc dt:dt=""string"">2023-11-14T10:50:49Z</DateUtc></StartTime><FrequencyChanges><FrequencyChange><Frequency dt:dt=""r8"">3221767</Frequency><Timestamp dt:dt=""r8"">22399545698</Timestamp><Current dt:dt=""r8"">0</Current><DateUtc dt:dt=""string"">2023-11-14T10:50:49Z</DateUtc></FrequencyChange></FrequencyChanges></Clock>\n";TMS_Ibrahim-59-2;60.015;1.0.0.561;1;v;925354408;2.0.10.356;2.0.10.242;11-14-2023;14/11/2023 10:50;11:50:50;2.0.10.147;0;;-999999;10;14988;0;1;1310;16298;1;1;1;2;1;2;1;BlockProcFischi;BlockList;1;175;0;;-999999;5;17767;0;1;291;18058;1;1;1;1;ProcFischi1;ListBlockFischi;33;1;1;0;0;5;Po2_B;150;4;ug;5;2;54;1;33;4;1;TrialProc;917;1603;Po2_B;112;1948;1836;ListFischi1;0;;0;211;247110;26;15;1969;249079;545;1;1969;1;581;280;1424;1;1
TMS_Ibrahim;59;2;"<?xml version=""1.0""?>\n<Clock xmlns:dt=""urn:schemas-microsoft-com:datatypes""><Description dt:dt=""string"">E-Prime Primary Realtime Clock</Description><StartTime><Timestamp dt:dt=""int"">0</Timestamp><DateUtc dt:dt=""string"">2023-11-14T10:50:49Z</DateUtc></StartTime><FrequencyChanges><FrequencyChange><Frequency dt:dt=""r8"">3221767</Frequency><Timestamp dt:dt=""r8"">22399545698</Timestamp><Current dt:dt=""r8"">0</Current><DateUtc dt:dt=""string"">2023-11-14T10:50:49Z</DateUtc></FrequencyChange></FrequencyChanges></Clock>\n";TMS_Ibrahim-59-2;60.015;1.0.0.561;1;v;925354408;2.0.10.356;2.0.10.242;11-14-2023;14/11/2023 10:50;11:50:50;2.0.10.147;0;;-999999;10;14988;0;1;1310;16298;1;1;1;2;1;2;1;BlockProcFischi;BlockList;1;175;0;;-999999;5;17767;0;1;291;18058;1;1;1;1;ProcFischi1;ListBlockFischi;34;1;1;0;0;3;Po8_B;125;2;op;3;2;37;1;34;2;0;TrialProc;1204;1259;Po8_B;165;1756;1592;ListFischi1;0;;0;213;254401;17;13;1782;256183;422;1;1782;1;620;577;1360;1;1
TMS_Ibrahim;59;2;"<?xml version=""1.0""?>\n<Clock xmlns:dt=""urn:schemas-microsoft-com:datatypes""><Description dt:dt=""string"">E-Prime Primary Realtime Clock</Description><StartTime><Timestamp dt:dt=""int"">0</Timestamp><DateUtc dt:dt=""string"">2023-11-14T10:50:49Z</DateUtc></StartTime><FrequencyChanges><FrequencyChange><Frequency dt:dt=""r8"">3221767</Frequency><Timestamp dt:dt=""r8"">22399545698</Timestamp><Current dt:dt=""r8"">0</Current><DateUtc dt:dt=""string"">2023-11-14T10:50:49Z</DateUtc></FrequencyChange></FrequencyChanges></Clock>\n";TMS_Ibrahim-59-2;60.015;1.0.0.561;1;v;925354408;2.0.10.356;2.0.10.242;11-14-2023;14/11/2023 10:50;11:50:50;2.0.10.147;0;;-999999;10;14988;0;1;1310;16298;1;1;1;2;1;2;1;BlockProcFischi;BlockList;1;175;0;;-999999;5;17767;0;1;291;18058;1;1;1;1;ProcFischi1;ListBlockFischi;35;1;1;0;1;3;Po5_B;125;2;op;3;2;46;1;35;2;0;TrialProc;1060;990;Po5_B;138;1352;1491;ListFischi1;0;;0;206;261502;14;133;1657;263159;345;1;1401;1;454;591;1056;1;1
TMS_Ibrahim;59;2;"<?xml version=""1.0""?>\n<Clock xmlns:dt=""urn:schemas-microsoft-com:datatypes""><Description dt:dt=""string"">E-Prime Primary Realtime Clock</Description><StartTime><Timestamp dt:dt=""int"">0</Timestamp><DateUtc dt:dt=""string"">2023-11-14T10:50:49Z</DateUtc></StartTime><FrequencyChanges><FrequencyChange><Frequency dt:dt=""r8"">3221767</Frequency><Timestamp dt:dt=""r8"">22399545698</Timestamp><Current dt:dt=""r8"">0</Current><DateUtc dt:dt=""string"">2023-11-14T10:50:49Z</DateUtc></FrequencyChange></FrequencyChanges></Clock>\n";TMS_Ibrahim-59-2;60.015;1.0.0.561;1;v;925354408;2.0.10.356;2.0.10.242;11-14-2023;14/11/2023 10:50;11:50:50;2.0.10.147;0;;-999999;10;14988;0;1;1310;16298;1;1;1;2;1;2;1;BlockProcFischi;BlockList;1;175;0;;-999999;5;17767;0;1;291;18058;1;1;1;1;ProcFischi1;ListBlockFischi;36;1;1;0;1;3;Po2_B;125;2;op;3;2;33;1;36;2;0;TrialProc;985;1590;Po2_B;232;1592;1824;ListFischi1;0;;0;210;268683;14;13;1612;270295;300;1;1612;1;459;599;1312;1;1
TMS_Ibrahim;59;2;"<?xml version=""1.0""?>\n<Clock xmlns:dt=""urn:schemas-microsoft-com:datatypes""><Description dt:dt=""string"">E-Prime Primary Realtime Clock</Description><StartTime><Timestamp dt:dt=""int"">0</Timestamp><DateUtc dt:dt=""string"">2023-11-14T10:50:49Z</DateUtc></StartTime><FrequencyChanges><FrequencyChange><Frequency dt:dt=""r8"">3221767</Frequency><Timestamp dt:dt=""r8"">22399545698</Timestamp><Current dt:dt=""r8"">0</Current><DateUtc dt:dt=""string"">2023-11-14T10:50:49Z</DateUtc></FrequencyChange></FrequencyChanges></Clock>\n";TMS_Ibrahim-59-2;60.015;1.0.0.561;1;v;925354408;2.0.10.356;2.0.10.242;11-14-2023;14/11/2023 10:50;11:50:50;2.0.10.147;0;;-999999;10;14988;0;1;1310;16298;1;1;1;2;1;2;1;BlockProcFischi;BlockList;1;175;0;;-999999;5;17767;0;1;291;18058;1;1;1;1;ProcFischi1;ListBlockFischi;37;0;2;0;1;3;Pr3_B;;3;ug;1;2;23;1;37;3;1;TrialProc;2821;720;Pr3_B;232;1592;1719;ListFischi1;0;;1;206;276168;11;1;559;276727;559;1;1;1;414;503;-558;1;0
TMS_Ibrahim;59;2;"<?xml version=""1.0""?>\n<Clock xmlns:dt=""urn:schemas-microsoft-com:datatypes""><Description dt:dt=""string"">E-Prime Primary Realtime Clock</Description><StartTime><Timestamp dt:dt=""int"">0</Timestamp><DateUtc dt:dt=""string"">2023-11-14T10:50:49Z</DateUtc></StartTime><FrequencyChanges><FrequencyChange><Frequency dt:dt=""r8"">3221767</Frequency><Timestamp dt:dt=""r8"">22399545698</Timestamp><Current dt:dt=""r8"">0</Current><DateUtc dt:dt=""string"">2023-11-14T10:50:49Z</DateUtc></FrequencyChange></FrequencyChanges></Clock>\n";TMS_Ibrahim-59-2;60.015;1.0.0.561;1;v;925354408;2.0.10.356;2.0.10.242;11-14-2023;14/11/2023 10:50;11:50:50;2.0.10.147;0;;-999999;10;14988;0;1;1310;16298;1;1;1;2;1;2;1;BlockProcFischi;BlockList;1;175;0;;-999999;5;17767;0;1;291;18058;1;1;1;1;ProcFischi1;ListBlockFischi;38;1;2;1;1;3;Prmod_B;125;3;ug;3;2;31;1;38;3;1;TrialProc;1494;1322;Prmod_B;337;1993;1656;ListFischi1;0;;0;204;284614;13;133;2736;287350;512;1;2016;1;848;215;1504;1;1
TMS_Ibrahim;59;2;"<?xml version=""1.0""?>\n<Clock xmlns:dt=""urn:schemas-microsoft-com:datatypes""><Description dt:dt=""string"">E-Prime Primary Realtime Clock</Description><StartTime><Timestamp dt:dt=""int"">0</Timestamp><DateUtc dt:dt=""string"">2023-11-14T10:50:49Z</DateUtc></StartTime><FrequencyChanges><FrequencyChange><Frequency dt:dt=""r8"">3221767</Frequency><Timestamp dt:dt=""r8"">22399545698</Timestamp><Current dt:dt=""r8"">0</Current><DateUtc dt:dt=""string"">2023-11-14T10:50:49Z</DateUtc></FrequencyChange></FrequencyChanges></Clock>\n";TMS_Ibrahim-59-2;60.015;1.0.0.561;1;v;925354408;2.0.10.356;2.0.10.242;11-14-2023;14/11/2023 10:50;11:50:50;2.0.10.147;0;;-999999;10;14988;0;1;1310;16298;1;1;1;2;1;2;1;BlockProcFischi;BlockList;1;175;0;;-999999;5;17767;0;1;291;18058;1;1;1;1;ProcFischi1;ListBlockFischi;39;1;2;0;2;3;Pr4_B;125;3;ug;3;2;19;1;39;3;1;TrialProc;1976;689;Pr4_B;354;1609;1255;ListFischi1;0;;0;211;290980;12;13;1634;292614;978;1;1634;1;859;484;656;1;1
TMS_Ibrahim;59;2;"<?xml version=""1.0""?>\n<Clock xmlns:dt=""urn:schemas-microsoft-com:datatypes""><Description dt:dt=""string"">E-Prime Primary Realtime Clock</Description><StartTime><Timestamp dt:dt=""int"">0</Timestamp><DateUtc dt:dt=""string"">2023-11-14T10:50:49Z</DateUtc></StartTime><FrequencyChanges><FrequencyChange><Frequency dt:dt=""r8"">3221767</Frequency><Timestamp dt:dt=""r8"">22399545698</Timestamp><Current dt:dt=""r8"">0</Current><DateUtc dt:dt=""string"">2023-11-14T10:50:49Z</DateUtc></FrequencyChange></FrequencyChanges></Clock>\n";TMS_Ibrahim-59-2;60.015;1.0.0.561;1;v;925354408;2.0.10.356;2.0.10.242;11-14-2023;14/11/2023 10:50;11:50:50;2.0.10.147;0;;-999999;10;14988;0;1;1310;16298;1;1;1;2;1;2;1;BlockProcFischi;BlockList;1;175;0;;-999999;5;17767;0;1;291;18058;1;1;1;1;ProcFischi1;ListBlockFischi;40;0;2;0;1;5;Pr5_B;;1;op;1;2;14;1;40;1;0;TrialProc;1906;689;Pr5_B;354;1609;1289;ListFischi1;0;;1;204;297978;12;1;460;298438;460;1;1;1;1011;349;-459;1;0
TMS_Ibrahim;59;2;"<?xml version=""1.0""?>\n<Clock xmlns:dt=""urn:schemas-microsoft-com:datatypes""><Description dt:dt=""string"">E-Prime Primary Realtime Clock</Description><StartTime><Timestamp dt:dt=""int"">0</Timestamp><DateUtc dt:dt=""string"">2023-11-14T10:50:49Z</DateUtc></StartTime><FrequencyChanges><FrequencyChange><Frequency dt:dt=""r8"">3221767</Frequency><Timestamp dt:dt=""r8"">22399545698</Timestamp><Current dt:dt=""r8"">0</Current><DateUtc dt:dt=""string"">2023-11-14T10:50:49Z</DateUtc></FrequencyChange></FrequencyChanges></Clock>\n";TMS_Ibrahim-59-2;60.015;1.0.0.561;1;v;925354408;2.0.10.356;2.0.10.242;11-14-2023;14/11/2023 10:50;11:50:50;2.0.10.147;0;;-999999;10;14988;0;1;1310;16298;1;1;1;2;1;2;1;BlockProcFischi;BlockList;1;175;0;;-999999;5;17767;0;1;291;18058;1;1;1;1;ProcFischi1;ListBlockFischi;41;1;1;0;2;3;Po4_B;125;2;op;3;2;45;1;41;2;0;TrialProc;1370;1355;Po4_B;188;1534;1721;ListFischi1;0;;1;210;306108;13;13;1562;307670;346;1;1562;1;510;356;1216;1;1
TMS_Ibrahim;59;2;"<?xml version=""1.0""?>\n<Clock xmlns:dt=""urn:schemas-microsoft-com:datatypes""><Description dt:dt=""string"">E-Prime Primary Realtime Clock</Description><StartTime><Timestamp dt:dt=""int"">0</Timestamp><DateUtc dt:dt=""string"">2023-11-14T10:50:49Z</DateUtc></StartTime><FrequencyChanges><FrequencyChange><Frequency dt:dt=""r8"">3221767</Frequency><Timestamp dt:dt=""r8"">22399545698</Timestamp><Current dt:dt=""r8"">0</Current><DateUtc dt:dt=""string"">2023-11-14T10:50:49Z</DateUtc></FrequencyChange></FrequencyChanges></Clock>\n";TMS_Ibrahim-59-2;60.015;1.0.0.561;1;v;925354408;2.0.10.356;2.0.10.242;11-14-2023;14/11/2023 10:50;11:50:50;2.0.10.147;0;;-999999;10;14988;0;1;1310;16298;1;1;1;2;1;2;1;BlockProcFischi;BlockList;1;175;0;;-999999;5;17767;0;1;291;18058;1;1;1;1;ProcFischi1;ListBlockFischi;42;1;2;0;1;5;Pr2_B;150;1;op;5;2;6;1;42;1;0;TrialProc;1822;735;Pr2_B;364;1633;1268;ListFischi1;0;;1;207;313576;27;15;1662;315238;398;1;1662;1;832;226;1264;1;1
TMS_Ibrahim;59;2;"<?xml version=""1.0""?>\n<Clock xmlns:dt=""urn:schemas-microsoft-com:datatypes""><Description dt:dt=""string"">E-Prime Primary Realtime Clock</Description><StartTime><Timestamp dt:dt=""int"">0</Timestamp><DateUtc dt:dt=""string"">2023-11-14T10:50:49Z</DateUtc></StartTime><FrequencyChanges><FrequencyChange><Frequency dt:dt=""r8"">3221767</Frequency><Timestamp dt:dt=""r8"">22399545698</Timestamp><Current dt:dt=""r8"">0</Current><DateUtc dt:dt=""string"">2023-11-14T10:50:49Z</DateUtc></FrequencyChange></FrequencyChanges></Clock>\n";TMS_Ibrahim-59-2;60.015;1.0.0.561;1;v;925354408;2.0.10.356;2.0.10.242;11-14-2023;14/11/2023 10:50;11:50:50;2.0.10.147;0;;-999999;10;14988;0;1;1310;16298;1;1;1;2;1;2;1;BlockProcFischi;BlockList;1;175;0;;-999999;5;17767;0;1;291;18058;1;1;1;1;ProcFischi1;ListBlockFischi;43;1;1;0;0;5;Po4_B;125;4;ug;5;2;51;1;43;4;1;TrialProc;1744;1358;Po4_B;230;1493;1724;ListFischi1;0;;0;204;320938;13;15;1516;322454;556;1;1516;1;409;217;960;1;1
TMS_Ibrahim;59;2;"<?xml version=""1.0""?>\n<Clock xmlns:dt=""urn:schemas-microsoft-com:datatypes""><Description dt:dt=""string"">E-Prime Primary Realtime Clock</Description><StartTime><Timestamp dt:dt=""int"">0</Timestamp><DateUtc dt:dt=""string"">2023-11-14T10:50:49Z</DateUtc></StartTime><FrequencyChanges><FrequencyChange><Frequency dt:dt=""r8"">3221767</Frequency><Timestamp dt:dt=""r8"">22399545698</Timestamp><Current dt:dt=""r8"">0</Current><DateUtc dt:dt=""string"">2023-11-14T10:50:49Z</DateUtc></FrequencyChange></FrequencyChanges></Clock>\n";TMS_Ibrahim-59-2;60.015;1.0.0.561;1;v;925354408;2.0.10.356;2.0.10.242;11-14-2023;14/11/2023 10:50;11:50:50;2.0.10.147;0;;-999999;10;14988;0;1;1310;16298;1;1;1;2;1;2;1;BlockProcFischi;BlockList;1;175;0;;-999999;5;17767;0;1;291;18058;1;1;1;1;ProcFischi1;ListBlockFischi;44;1;2;0;2;5;Pr5_B;150;1;op;5;2;9;1;44;1;0;TrialProc;1333;684;Pr5_B;195;1478;1283;ListFischi1;0;;1;204;328492;7;15;1498;329990;506;1;1498;1;822;336;992;1;1
TMS_Ibrahim;59;2;"<?xml version=""1.0""?>\n<Clock xmlns:dt=""urn:schemas-microsoft-com:datatypes""><Description dt:dt=""string"">E-Prime Primary Realtime Clock</Description><StartTime><Timestamp dt:dt=""int"">0</Timestamp><DateUtc dt:dt=""string"">2023-11-14T10:50:49Z</DateUtc></StartTime><FrequencyChanges><FrequencyChange><Frequency dt:dt=""r8"">3221767</Frequency><Timestamp dt:dt=""r8"">22399545698</Timestamp><Current dt:dt=""r8"">0</Current><DateUtc dt:dt=""string"">2023-11-14T10:50:49Z</DateUtc></FrequencyChange></FrequencyChanges></Clock>\n";TMS_Ibrahim-59-2;60.015;1.0.0.561;1;v;925354408;2.0.10.356;2.0.10.242;11-14-2023;14/11/2023 10:50;11:50:50;2.0.10.147;0;;-999999;10;14988;0;1;1310;16298;1;1;1;2;1;2;1;BlockProcFischi;BlockList;1;175;0;;-999999;5;17767;0;1;291;18058;1;1;1;1;ProcFischi1;ListBlockFischi;45;1;1;0;1;5;Po2_B;125;4;ug;5;2;59;1;45;4;1;TrialProc;2964;1591;Po2_B;42;1782;1823;ListFischi1;0;;0;204;335366;15;155;2208;337574;336;1;1808;1;471;472;1472;1;1
TMS_Ibrahim;59;2;"<?xml version=""1.0""?>\n<Clock xmlns:dt=""urn:schemas-microsoft-com:datatypes""><Description dt:dt=""string"">E-Prime Primary Realtime Clock</Description><StartTime><Timestamp dt:dt=""int"">0</Timestamp><DateUtc dt:dt=""string"">2023-11-14T10:50:49Z</DateUtc></StartTime><FrequencyChanges><FrequencyChange><Frequency dt:dt=""r8"">3221767</Frequency><Timestamp dt:dt=""r8"">22399545698</Timestamp><Current dt:dt=""r8"">0</Current><DateUtc dt:dt=""string"">2023-11-14T10:50:49Z</DateUtc></FrequencyChange></FrequencyChanges></Clock>\n";TMS_Ibrahim-59-2;60.015;1.0.0.561;1;v;925354408;2.0.10.356;2.0.10.242;11-14-2023;14/11/2023 10:50;11:50:50;2.0.10.147;0;;-999999;10;14988;0;1;1310;16298;1;1;1;2;1;2;1;BlockProcFischi;BlockList;1;175;0;;-999999;5;17767;0;1;291;18058;1;1;1;1;ProcFischi1;ListBlockFischi;46;1;2;0;0;3;Pr8_B;150;3;ug;3;2;21;1;46;3;1;TrialProc;1164;730;Pr8_B;63;1826;1763;ListFischi1;0;;0;205;342675;21;133;3155;345830;915;1;1859;1;487;589;944;1;1
TMS_Ibrahim;59;2;"<?xml version=""1.0""?>\n<Clock xmlns:dt=""urn:schemas-microsoft-com:datatypes""><Description dt:dt=""string"">E-Prime Primary Realtime Clock</Description><StartTime><Timestamp dt:dt=""int"">0</Timestamp><DateUtc dt:dt=""string"">2023-11-14T10:50:49Z</DateUtc></StartTime><FrequencyChanges><FrequencyChange><Frequency dt:dt=""r8"">3221767</Frequency><Timestamp dt:dt=""r8"">22399545698</Timestamp><Current dt:dt=""r8"">0</Current><DateUtc dt:dt=""string"">2023-11-14T10:50:49Z</DateUtc></FrequencyChange></FrequencyChanges></Clock>\n";TMS_Ibrahim-59-2;60.015;1.0.0.561;1;v;925354408;2.0.10.356;2.0.10.242;11-14-2023;14/11/2023 10:50;11:50:50;2.0.10.147;0;;-999999;10;14988;0;1;1310;16298;1;1;1;2;1;2;1;BlockProcFischi;BlockList;1;175;0;;-999999;5;17767;0;1;291;18058;1;1;1;1;ProcFischi1;ListBlockFischi;47;1;1;0;0;3;Po4_B;150;2;op;3;2;35;1;47;2;0;TrialProc;1518;1356;Po4_B;89;1633;1722;ListFischi1;0;;1;206;348863;14;13;1655;350518;407;1;1655;1;507;505;1248;1;1
TMS_Ibrahim;59;2;"<?xml version=""1.0""?>\n<Clock xmlns:dt=""urn:schemas-microsoft-com:datatypes""><Description dt:dt=""string"">E-Prime Primary Realtime Clock</Description><StartTime><Timestamp dt:dt=""int"">0</Timestamp><DateUtc dt:dt=""string"">2023-11-14T10:50:49Z</DateUtc></StartTime><FrequencyChanges><FrequencyChange><Frequency dt:dt=""r8"">3221767</Frequency><Timestamp dt:dt=""r8"">22399545698</Timestamp><Current dt:dt=""r8"">0</Current><DateUtc dt:dt=""string"">2023-11-14T10:50:49Z</DateUtc></FrequencyChange></FrequencyChanges></Clock>\n";TMS_Ibrahim-59-2;60.015;1.0.0.561;1;v;925354408;2.0.10.356;2.0.10.242;11-14-2023;14/11/2023 10:50;11:50:50;2.0.10.147;0;;-999999;10;14988;0;1;1310;16298;1;1;1;2;1;2;1;BlockProcFischi;BlockList;1;175;0;;-999999;5;17767;0;1;291;18058;1;1;1;1;ProcFischi1;ListBlockFischi;48;1;2;0;0;5;Pr4_B;175;1;op;5;2;13;1;48;1;0;TrialProc;1486;691;Pr4_B;212;1469;1257;ListFischi1;0;;0;208;356261;15;15;1488;357749;369;1;1488;1;590;479;1119;1;1
TMS_Ibrahim;59;2;"<?xml version=""1.0""?>\n<Clock xmlns:dt=""urn:schemas-microsoft-com:datatypes""><Description dt:dt=""string"">E-Prime Primary Realtime Clock</Description><StartTime><Timestamp dt:dt=""int"">0</Timestamp><DateUtc dt:dt=""string"">2023-11-14T10:50:49Z</DateUtc></StartTime><FrequencyChanges><FrequencyChange><Frequency dt:dt=""r8"">3221767</Frequency><Timestamp dt:dt=""r8"">22399545698</Timestamp><Current dt:dt=""r8"">0</Current><DateUtc dt:dt=""string"">2023-11-14T10:50:49Z</DateUtc></FrequencyChange></FrequencyChanges></Clock>\n";TMS_Ibrahim-59-2;60.015;1.0.0.561;1;v;925354408;2.0.10.356;2.0.10.242;11-14-2023;14/11/2023 10:50;11:50:50;2.0.10.147;0;;-999999;10;14988;0;1;1310;16298;1;1;1;2;1;2;1;BlockProcFischi;BlockList;1;175;0;;-999999;5;17767;0;1;291;18058;1;1;1;1;ProcFischi1;ListBlockFischi;49;1;1;0;0;3;Po3_B;125;2;op;3;2;34;1;49;2;0;TrialProc;861;1325;Po3_B;141;1451;1592;ListFischi1;0;;1;210;363458;16;13;1475;364933;403;1;1475;1;538;577;1072;1;1
TMS_Ibrahim;59;2;"<?xml version=""1.0""?>\n<Clock xmlns:dt=""urn:schemas-microsoft-com:datatypes""><Description dt:dt=""string"">E-Prime Primary Realtime Clock</Description><StartTime><Timestamp dt:dt=""int"">0</Timestamp><DateUtc dt:dt=""string"">2023-11-14T10:50:49Z</DateUtc></StartTime><FrequencyChanges><FrequencyChange><Frequency dt:dt=""r8"">3221767</Frequency><Timestamp dt:dt=""r8"">22399545698</Timestamp><Current dt:dt=""r8"">0</Current><DateUtc dt:dt=""string"">2023-11-14T10:50:49Z</DateUtc></FrequencyChange></FrequencyChanges></Clock>\n";TMS_Ibrahim-59-2;60.015;1.0.0.561;1;v;925354408;2.0.10.356;2.0.10.242;11-14-2023;14/11/2023 10:50;11:50:50;2.0.10.147;0;;-999999;10;14988;0;1;1310;16298;1;1;1;2;1;2;1;BlockProcFischi;BlockList;1;175;0;;-999999;5;17767;0;1;291;18058;1;1;1;1;ProcFischi1;ListBlockFischi;50;1;2;0;0;3;Pr5_B;125;3;ug;3;2;20;1;50;3;1;TrialProc;1430;692;Pr5_B;50;1242;1292;ListFischi1;0;;0;205;371189;16;13;1264;372453;272;1;1264;1;515;272;992;1;1
TMS_Ibrahim;59;2;"<?xml version=""1.0""?>\n<Clock xmlns:dt=""urn:schemas-microsoft-com:datatypes""><Description dt:dt=""string"">E-Prime Primary Realtime Clock</Description><StartTime><Timestamp dt:dt=""int"">0</Timestamp><DateUtc dt:dt=""string"">2023-11-14T10:50:49Z</DateUtc></StartTime><FrequencyChanges><FrequencyChange><Frequency dt:dt=""r8"">3221767</Frequency><Timestamp dt:dt=""r8"">22399545698</Timestamp><Current dt:dt=""r8"">0</Current><DateUtc dt:dt=""string"">2023-11-14T10:50:49Z</DateUtc></FrequencyChange></FrequencyChanges></Clock>\n";TMS_Ibrahim-59-2;60.015;1.0.0.561;1;v;925354408;2.0.10.356;2.0.10.242;11-14-2023;14/11/2023 10:50;11:50:50;2.0.10.147;0;;-999999;10;14988;0;1;1310;16298;1;1;1;2;1;2;1;BlockProcFischi;BlockList;1;175;0;;-999999;5;17767;0;1;291;18058;1;1;1;1;ProcFischi1;ListBlockFischi;51;1;1;0;0;3;Po3_B;125;2;op;3;2;44;1;51;2;0;TrialProc;2391;1335;Po3_B;382;1220;1602;ListFischi1;0;;1;212;378576;27;13;1253;379829;309;1;1253;1;449;545;944;1;1
TMS_Ibrahim;59;2;"<?xml version=""1.0""?>\n<Clock xmlns:dt=""urn:schemas-microsoft-com:datatypes""><Description dt:dt=""string"">E-Prime Primary Realtime Clock</Description><StartTime><Timestamp dt:dt=""int"">0</Timestamp><DateUtc dt:dt=""string"">2023-11-14T10:50:49Z</DateUtc></StartTime><FrequencyChanges><FrequencyChange><Frequency dt:dt=""r8"">3221767</Frequency><Timestamp dt:dt=""r8"">22399545698</Timestamp><Current dt:dt=""r8"">0</Current><DateUtc dt:dt=""string"">2023-11-14T10:50:49Z</DateUtc></FrequencyChange></FrequencyChanges></Clock>\n";TMS_Ibrahim-59-2;60.015;1.0.0.561;1;v;925354408;2.0.10.356;2.0.10.242;11-14-2023;14/11/2023 10:50;11:50:50;2.0.10.147;0;;-999999;10;14988;0;1;1310;16298;1;1;1;2;1;2;1;BlockProcFischi;BlockList;1;175;0;;-999999;5;17767;0;1;291;18058;1;1;1;1;ProcFischi1;ListBlockFischi;52;0;1;0;0;5;Po3_B;;4;ug;3;2;55;1;52;4;1;TrialProc;1815;1329;Po3_B;17;1614;1597;ListFischi1;0;;0;204;386315;20;13;1641;387956;474;1;1641;1;1366;585;1167;1;0
TMS_Ibrahim;59;2;"<?xml version=""1.0""?>\n<Clock xmlns:dt=""urn:schemas-microsoft-com:datatypes""><Description dt:dt=""string"">E-Prime Primary Realtime Clock</Description><StartTime><Timestamp dt:dt=""int"">0</Timestamp><DateUtc dt:dt=""string"">2023-11-14T10:50:49Z</DateUtc></StartTime><FrequencyChanges><FrequencyChange><Frequency dt:dt=""r8"">3221767</Frequency><Timestamp dt:dt=""r8"">22399545698</Timestamp><Current dt:dt=""r8"">0</Current><DateUtc dt:dt=""string"">2023-11-14T10:50:49Z</DateUtc></FrequencyChange></FrequencyChanges></Clock>\n";TMS_Ibrahim-59-2;60.015;1.0.0.561;1;v;925354408;2.0.10.356;2.0.10.242;11-14-2023;14/11/2023 10:50;11:50:50;2.0.10.147;0;;-999999;10;14988;0;1;1310;16298;1;1;1;2;1;2;1;BlockProcFischi;BlockList;1;175;0;;-999999;5;17767;0;1;291;18058;1;1;1;1;ProcFischi1;ListBlockFischi;53;1;1;0;1;3;Po5_B;125;2;op;3;2;36;1;53;2;0;TrialProc;1177;1000;Po5_B;192;1691;1499;ListFischi1;0;;0;207;393460;23;13;1713;395173;528;1;1713;1;709;536;1185;1;1
TMS_Ibrahim;59;2;"<?xml version=""1.0""?>\n<Clock xmlns:dt=""urn:schemas-microsoft-com:datatypes""><Description dt:dt=""string"">E-Prime Primary Realtime Clock</Description><StartTime><Timestamp dt:dt=""int"">0</Timestamp><DateUtc dt:dt=""string"">2023-11-14T10:50:49Z</DateUtc></StartTime><FrequencyChanges><FrequencyChange><Frequency dt:dt=""r8"">3221767</Frequency><Timestamp dt:dt=""r8"">22399545698</Timestamp><Current dt:dt=""r8"">0</Current><DateUtc dt:dt=""string"">2023-11-14T10:50:49Z</DateUtc></FrequencyChange></FrequencyChanges></Clock>\n";TMS_Ibrahim-59-2;60.015;1.0.0.561;1;v;925354408;2.0.10.356;2.0.10.242;11-14-2023;14/11/2023 10:50;11:50:50;2.0.10.147;0;;-999999;10;14988;0;1;1310;16298;1;1;1;2;1;2;1;BlockProcFischi;BlockList;1;175;0;;-999999;5;17767;0;1;291;18058;1;1;1;1;ProcFischi1;ListBlockFischi;54;0;2;1;1;5;Prmod_B;;1;op;1;2;16;1;54;1;0;TrialProc;1434;1328;Prmod_B;192;1691;1661;ListFischi1;0;;0;204;400363;18;1;554;400917;554;1;1;1;644;269;-553;1;0
TMS_Ibrahim;59;2;"<?xml version=""1.0""?>\n<Clock xmlns:dt=""urn:schemas-microsoft-com:datatypes""><Description dt:dt=""string"">E-Prime Primary Realtime Clock</Description><StartTime><Timestamp dt:dt=""int"">0</Timestamp><DateUtc dt:dt=""string"">2023-11-14T10:50:49Z</DateUtc></StartTime><FrequencyChanges><FrequencyChange><Frequency dt:dt=""r8"">3221767</Frequency><Timestamp dt:dt=""r8"">22399545698</Timestamp><Current dt:dt=""r8"">0</Current><DateUtc dt:dt=""string"">2023-11-14T10:50:49Z</DateUtc></FrequencyChange></FrequencyChanges></Clock>\n";TMS_Ibrahim-59-2;60.015;1.0.0.561;1;v;925354408;2.0.10.356;2.0.10.242;11-14-2023;14/11/2023 10:50;11:50:50;2.0.10.147;0;;-999999;10;14988;0;1;1310;16298;1;1;1;2;1;2;1;BlockProcFischi;BlockList;1;175;0;;-999999;5;17767;0;1;291;18058;1;1;1;1;ProcFischi1;ListBlockFischi;55;1;1;0;0;5;Po4_B;100;4;ug;5;2;61;1;55;4;1;TrialProc;1057;1353;Po4_B;430;2149;1719;ListFischi1;0;;1;204;408620;9;15;2169;410789;329;1;2169;1;1018;539;1840;1;1
TMS_Ibrahim;59;2;"<?xml version=""1.0""?>\n<Clock xmlns:dt=""urn:schemas-microsoft-com:datatypes""><Description dt:dt=""string"">E-Prime Primary Realtime Clock</Description><StartTime><Timestamp dt:dt=""int"">0</Timestamp><DateUtc dt:dt=""string"">2023-11-14T10:50:49Z</DateUtc></StartTime><FrequencyChanges><FrequencyChange><Frequency dt:dt=""r8"">3221767</Frequency><Timestamp dt:dt=""r8"">22399545698</Timestamp><Current dt:dt=""r8"">0</Current><DateUtc dt:dt=""string"">2023-11-14T10:50:49Z</DateUtc></FrequencyChange></FrequencyChanges></Clock>\n";TMS_Ibrahim-59-2;60.015;1.0.0.561;1;v;925354408;2.0.10.356;2.0.10.242;11-14-2023;14/11/2023 10:50;11:50:50;2.0.10.147;0;;-999999;10;14988;0;1;1310;16298;1;1;1;2;1;2;1;BlockProcFischi;BlockList;1;175;0;;-999999;5;17767;0;1;291;18058;1;1;1;1;ProcFischi1;ListBlockFischi;56;1;2;0;0;3;Pr3_B;100;3;ug;3;2;18;1;56;3;1;TrialProc;1381;728;Pr3_B;99;1827;1728;ListFischi1;0;;0;204;415592;19;13;1853;417445;957;1;1853;1;588;335;896;1;1
TMS_Ibrahim;59;2;"<?xml version=""1.0""?>\n<Clock xmlns:dt=""urn:schemas-microsoft-com:datatypes""><Description dt:dt=""string"">E-Prime Primary Realtime Clock</Description><StartTime><Timestamp dt:dt=""int"">0</Timestamp><DateUtc dt:dt=""string"">2023-11-14T10:50:49Z</DateUtc></StartTime><FrequencyChanges><FrequencyChange><Frequency dt:dt=""r8"">3221767</Frequency><Timestamp dt:dt=""r8"">22399545698</Timestamp><Current dt:dt=""r8"">0</Current><DateUtc dt:dt=""string"">2023-11-14T10:50:49Z</DateUtc></FrequencyChange></FrequencyChanges></Clock>\n";TMS_Ibrahim-59-2;60.015;1.0.0.561;1;v;925354408;2.0.10.356;2.0.10.242;11-14-2023;14/11/2023 10:50;11:50:50;2.0.10.147;0;;-999999;10;14988;0;1;1310;16298;1;1;1;2;1;2;1;BlockProcFischi;BlockList;1;175;0;;-999999;5;17767;0;1;291;18058;1;1;1;1;ProcFischi1;ListBlockFischi;57;1;1;0;2;3;Po8_B;125;2;op;3;2;42;1;57;2;0;TrialProc;1425;1256;Po8_B;9;1599;1590;ListFischi1;0;;0;208;422796;13;13;1625;424421;489;1;1625;1;643;223;1136;1;1
TMS_Ibrahim;59;2;"<?xml version=""1.0""?>\n<Clock xmlns:dt=""urn:schemas-microsoft-com:datatypes""><Description dt:dt=""string"">E-Prime Primary Realtime Clock</Description><StartTime><Timestamp dt:dt=""int"">0</Timestamp><DateUtc dt:dt=""string"">2023-11-14T10:50:49Z</DateUtc></StartTime><FrequencyChanges><FrequencyChange><Frequency dt:dt=""r8"">3221767</Frequency><Timestamp dt:dt=""r8"">22399545698</Timestamp><Current dt:dt=""r8"">0</Current><DateUtc dt:dt=""string"">2023-11-14T10:50:49Z</DateUtc></FrequencyChange></FrequencyChanges></Clock>\n";TMS_Ibrahim-59-2;60.015;1.0.0.561;1;v;925354408;2.0.10.356;2.0.10.242;11-14-2023;14/11/2023 10:50;11:50:50;2.0.10.147;0;;-999999;10;14988;0;1;1310;16298;1;1;1;2;1;2;1;BlockProcFischi;BlockList;1;175;0;;-999999;5;17767;0;1;291;18058;1;1;1;1;ProcFischi1;ListBlockFischi;58;1;2;0;0;3;Pr4_B;100;3;ug;3;2;24;1;58;3;1;TrialProc;1069;692;Pr4_B;150;1409;1258;ListFischi1;0;;0;204;430074;16;13;1435;431509;475;1;1435;1;623;410;960;1;1
TMS_Ibrahim;59;2;"<?xml version=""1.0""?>\n<Clock xmlns:dt=""urn:schemas-microsoft-com:datatypes""><Description dt:dt=""string"">E-Prime Primary Realtime Clock</Description><StartTime><Timestamp dt:dt=""int"">0</Timestamp><DateUtc dt:dt=""string"">2023-11-14T10:50:49Z</DateUtc></StartTime><FrequencyChanges><FrequencyChange><Frequency dt:dt=""r8"">3221767</Frequency><Timestamp dt:dt=""r8"">22399545698</Timestamp><Current dt:dt=""r8"">0</Current><DateUtc dt:dt=""string"">2023-11-14T10:50:49Z</DateUtc></FrequencyChange></FrequencyChanges></Clock>\n";TMS_Ibrahim-59-2;60.015;1.0.0.561;1;v;925354408;2.0.10.356;2.0.10.242;11-14-2023;14/11/2023 10:50;11:50:50;2.0.10.147;0;;-999999;10;14988;0;1;1310;16298;1;1;1;2;1;2;1;BlockProcFischi;BlockList;1;175;0;;-999999;5;17767;0;1;291;18058;1;1;1;1;ProcFischi1;ListBlockFischi;59;0;2;0;1;5;Pr4_B;;1;op;3;2;3;1;59;1;0;TrialProc;808;687;Pr4_B;220;1475;1255;ListFischi1;0;;1;203;437327;12;13;1493;438820;549;1;1493;1;942;378;944;1;0
TMS_Ibrahim;59;2;"<?xml version=""1.0""?>\n<Clock xmlns:dt=""urn:schemas-microsoft-com:datatypes""><Description dt:dt=""string"">E-Prime Primary Realtime Clock</Description><StartTime><Timestamp dt:dt=""int"">0</Timestamp><DateUtc dt:dt=""string"">2023-11-14T10:50:49Z</DateUtc></StartTime><FrequencyChanges><FrequencyChange><Frequency dt:dt=""r8"">3221767</Frequency><Timestamp dt:dt=""r8"">22399545698</Timestamp><Current dt:dt=""r8"">0</Current><DateUtc dt:dt=""string"">2023-11-14T10:50:49Z</DateUtc></FrequencyChange></FrequencyChanges></Clock>\n";TMS_Ibrahim-59-2;60.015;1.0.0.561;1;v;925354408;2.0.10.356;2.0.10.242;11-14-2023;14/11/2023 10:50;11:50:50;2.0.10.147;0;;-999999;10;14988;0;1;1310;16298;1;1;1;2;1;2;1;BlockProcFischi;BlockList;1;175;0;;-999999;5;17767;0;1;291;18058;1;1;1;1;ProcFischi1;ListBlockFischi;60;1;1;0;1;5;Po8_B;100;4;ug;5;2;58;1;60;4;1;TrialProc;1371;1267;Po8_B;22;1579;1600;ListFischi1;0;;0;211;445778;25;15;1602;447380;562;1;1602;1;512;441;1040;1;1
TMS_Ibrahim;59;2;"<?xml version=""1.0""?>\n<Clock xmlns:dt=""urn:schemas-microsoft-com:datatypes""><Description dt:dt=""string"">E-Prime Primary Realtime Clock</Description><StartTime><Timestamp dt:dt=""int"">0</Timestamp><DateUtc dt:dt=""string"">2023-11-14T10:50:49Z</DateUtc></StartTime><FrequencyChanges><FrequencyChange><Frequency dt:dt=""r8"">3221767</Frequency><Timestamp dt:dt=""r8"">22399545698</Timestamp><Current dt:dt=""r8"">0</Current><DateUtc dt:dt=""string"">2023-11-14T10:50:49Z</DateUtc></FrequencyChange></FrequencyChanges></Clock>\n";TMS_Ibrahim-59-2;60.015;1.0.0.561;1;v;925354408;2.0.10.356;2.0.10.242;11-14-2023;14/11/2023 10:50;11:50:50;2.0.10.147;0;;-999999;10;14988;0;1;1310;16298;1;1;1;2;1;2;1;BlockProcFischi;BlockList;1;175;0;;-999999;5;17767;0;1;291;18058;1;1;1;1;ProcFischi1;ListBlockFischi;61;1;2;0;1;5;Pr2_B;175;1;op;5;2;1;1;61;1;0;TrialProc;1675;722;Pr2_B;546;1799;1254;ListFischi1;0;;0;207;453123;12;15;1825;454948;481;1;1825;1;562;366;1344;1;1
TMS_Ibrahim;59;2;"<?xml version=""1.0""?>\n<Clock xmlns:dt=""urn:schemas-microsoft-com:datatypes""><Description dt:dt=""string"">E-Prime Primary Realtime Clock</Description><StartTime><Timestamp dt:dt=""int"">0</Timestamp><DateUtc dt:dt=""string"">2023-11-14T10:50:49Z</DateUtc></StartTime><FrequencyChanges><FrequencyChange><Frequency dt:dt=""r8"">3221767</Frequency><Timestamp dt:dt=""r8"">22399545698</Timestamp><Current dt:dt=""r8"">0</Current><DateUtc dt:dt=""string"">2023-11-14T10:50:49Z</DateUtc></FrequencyChange></FrequencyChanges></Clock>\n";TMS_Ibrahim-59-2;60.015;1.0.0.561;1;v;925354408;2.0.10.356;2.0.10.242;11-14-2023;14/11/2023 10:50;11:50:50;2.0.10.147;0;;-999999;10;14988;0;1;1310;16298;1;1;1;2;1;2;1;BlockProcFischi;BlockList;1;175;0;;-999999;5;17767;0;1;291;18058;1;1;1;1;ProcFischi1;ListBlockFischi;62;1;1;0;0;3;Po2_B;100;2;op;3;2;38;1;62;2;0;TrialProc;837;1590;Po2_B;146;1970;1824;ListFischi1;0;;0;206;459936;13;13;1988;461924;564;1;1988;1;580;516;1424;1;1
TMS_Ibrahim;59;2;"<?xml version=""1.0""?>\n<Clock xmlns:dt=""urn:schemas-microsoft-com:datatypes""><Description dt:dt=""string"">E-Prime Primary Realtime Clock</Description><StartTime><Timestamp dt:dt=""int"">0</Timestamp><DateUtc dt:dt=""string"">2023-11-14T10:50:49Z</DateUtc></StartTime><FrequencyChanges><FrequencyChange><Frequency dt:dt=""r8"">3221767</Frequency><Timestamp dt:dt=""r8"">22399545698</Timestamp><Current dt:dt=""r8"">0</Current><DateUtc dt:dt=""string"">2023-11-14T10:50:49Z</DateUtc></FrequencyChange></FrequencyChanges></Clock>\n";TMS_Ibrahim-59-2;60.015;1.0.0.561;1;v;925354408;2.0.10.356;2.0.10.242;11-14-2023;14/11/2023 10:50;11:50:50;2.0.10.147;0;;-999999;10;14988;0;1;1310;16298;1;1;1;2;1;2;1;BlockProcFischi;BlockList;1;175;0;;-999999;5;17767;0;1;291;18058;1;1;1;1;ProcFischi1;ListBlockFischi;63;1;2;0;1;3;Pr5_B;100;3;ug;3;2;25;1;63;3;1;TrialProc;768;695;Pr5_B;263;1557;1294;ListFischi1;0;;1;208;466962;19;131;3138;470100;450;1;1586;1;842;427;1136;1;1
TMS_Ibrahim;59;2;"<?xml version=""1.0""?>\n<Clock xmlns:dt=""urn:schemas-microsoft-com:datatypes""><Description dt:dt=""string"">E-Prime Primary Realtime Clock</Description><StartTime><Timestamp dt:dt=""int"">0</Timestamp><DateUtc dt:dt=""string"">2023-11-14T10:50:49Z</DateUtc></StartTime><FrequencyChanges><FrequencyChange><Frequency dt:dt=""r8"">3221767</Frequency><Timestamp dt:dt=""r8"">22399545698</Timestamp><Current dt:dt=""r8"">0</Current><DateUtc dt:dt=""string"">2023-11-14T10:50:49Z</DateUtc></FrequencyChange></FrequencyChanges></Clock>\n";TMS_Ibrahim-59-2;60.015;1.0.0.561;1;v;925354408;2.0.10.356;2.0.10.242;11-14-2023;14/11/2023 10:50;11:50:50;2.0.10.147;0;;-999999;10;14988;0;1;1310;16298;1;1;1;2;1;2;1;BlockProcFischi;BlockList;1;175;0;;-999999;5;17767;0;1;291;18058;1;1;1;1;ProcFischi1;ListBlockFischi;64;1;2;0;2;3;Pr3_B;100;3;ug;3;2;28;1;64;3;1;TrialProc;1223;726;Pr3_B;1;1727;1725;ListFischi1;0;;0;211;474046;17;13;1750;475796;582;1;1750;1;607;328;1168;1;1
TMS_Ibrahim;59;4;"<?xml version=""1.0""?>\n<Clock xmlns:dt=""urn:schemas-microsoft-com:datatypes""><Description dt:dt=""string"">E-Prime Primary Realtime Clock</Description><StartTime><Timestamp dt:dt=""int"">0</Timestamp><DateUtc dt:dt=""string"">2023-11-14T11:52:29Z</DateUtc></StartTime><FrequencyChanges><FrequencyChange><Frequency dt:dt=""r8"">3221767</Frequency><Timestamp dt:dt=""r8"">34319367791</Timestamp><Current dt:dt=""r8"">0</Current><DateUtc dt:dt=""string"">2023-11-14T11:52:29Z</DateUtc></FrequencyChange></FrequencyChanges></Clock>\n";TMS_Ibrahim-59-4;60.015;1.0.0.561;1;m;-39752143;2.0.10.356;2.0.10.242;11-14-2023;14/11/2023 11:52;12:52:29;2.0.10.147;0;;-999999;14;14941;0;1;3602;18543;1;1;1;2;1;0;1;BlockProcFischi;BlockList;1;125;0;;-999999;6;20101;0;1;346;20447;1;1;1;1;ProcFischi1;ListBlockFischi;1;1;1;0;0;3;Po2_B;250;2;op;3;2;38;1;1;2;0;TrialProc;1739;1583;Po2_B;8;1809;1816;ListFischi1;0;;0;211;22771;8;13;1828;24599;628;1;1828;1;978;221;1200;1;1
TMS_Ibrahim;59;4;"<?xml version=""1.0""?>\n<Clock xmlns:dt=""urn:schemas-microsoft-com:datatypes""><Description dt:dt=""string"">E-Prime Primary Realtime Clock</Description><StartTime><Timestamp dt:dt=""int"">0</Timestamp><DateUtc dt:dt=""string"">2023-11-14T11:52:29Z</DateUtc></StartTime><FrequencyChanges><FrequencyChange><Frequency dt:dt=""r8"">3221767</Frequency><Timestamp dt:dt=""r8"">34319367791</Timestamp><Current dt:dt=""r8"">0</Current><DateUtc dt:dt=""string"">2023-11-14T11:52:29Z</DateUtc></FrequencyChange></FrequencyChanges></Clock>\n";TMS_Ibrahim-59-4;60.015;1.0.0.561;1;m;-39752143;2.0.10.356;2.0.10.242;11-14-2023;14/11/2023 11:52;12:52:29;2.0.10.147;0;;-999999;14;14941;0;1;3602;18543;1;1;1;2;1;0;1;BlockProcFischi;BlockList;1;125;0;;-999999;6;20101;0;1;346;20447;1;1;1;1;ProcFischi1;ListBlockFischi;2;1;1;0;0;5;Po3_B;250;4;ug;5;2;60;1;2;4;1;TrialProc;1127;1319;Po3_B;31;1615;1584;ListFischi1;0;;1;203;29819;8;15;1644;31463;428;1;1644;1;499;351;1216;1;1
TMS_Ibrahim;59;4;"<?xml version=""1.0""?>\n<Clock xmlns:dt=""urn:schemas-microsoft-com:datatypes""><Description dt:dt=""string"">E-Prime Primary Realtime Clock</Description><StartTime><Timestamp dt:dt=""int"">0</Timestamp><DateUtc dt:dt=""string"">2023-11-14T11:52:29Z</DateUtc></StartTime><FrequencyChanges><FrequencyChange><Frequency dt:dt=""r8"">3221767</Frequency><Timestamp dt:dt=""r8"">34319367791</Timestamp><Current dt:dt=""r8"">0</Current><DateUtc dt:dt=""string"">2023-11-14T11:52:29Z</DateUtc></FrequencyChange></FrequencyChanges></Clock>\n";TMS_Ibrahim-59-4;60.015;1.0.0.561;1;m;-39752143;2.0.10.356;2.0.10.242;11-14-2023;14/11/2023 11:52;12:52:29;2.0.10.147;0;;-999999;14;14941;0;1;3602;18543;1;1;1;2;1;0;1;BlockProcFischi;BlockList;1;125;0;;-999999;6;20101;0;1;346;20447;1;1;1;1;ProcFischi1;ListBlockFischi;3;1;1;0;0;3;Po4_B;225;2;op;3;2;35;1;3;2;0;TrialProc;844;1368;Po4_B;236;1498;1735;ListFischi1;0;;0;206;37117;8;13;1530;38647;522;1;1530;1;387;416;1008;1;1
TMS_Ibrahim;59;4;"<?xml version=""1.0""?>\n<Clock xmlns:dt=""urn:schemas-microsoft-com:datatypes""><Description dt:dt=""string"">E-Prime Primary Realtime Clock</Description><StartTime><Timestamp dt:dt=""int"">0</Timestamp><DateUtc dt:dt=""string"">2023-11-14T11:52:29Z</DateUtc></StartTime><FrequencyChanges><FrequencyChange><Frequency dt:dt=""r8"">3221767</Frequency><Timestamp dt:dt=""r8"">34319367791</Timestamp><Current dt:dt=""r8"">0</Current><DateUtc dt:dt=""string"">2023-11-14T11:52:29Z</DateUtc></FrequencyChange></FrequencyChanges></Clock>\n";TMS_Ibrahim-59-4;60.015;1.0.0.561;1;m;-39752143;2.0.10.356;2.0.10.242;11-14-2023;14/11/2023 11:52;12:52:29;2.0.10.147;0;;-999999;14;14941;0;1;3602;18543;1;1;1;2;1;0;1;BlockProcFischi;BlockList;1;125;0;;-999999;6;20101;0;1;346;20447;1;1;1;1;ProcFischi1;ListBlockFischi;4;1;2;0;0;3;Pr4_B;250;3;ug;3;2;19;1;4;3;1;TrialProc;1735;693;Pr4_B;218;1477;1259;ListFischi1;0;;0;211;44473;17;13;1502;45975;558;1;1502;1;650;416;944;1;1
TMS_Ibrahim;59;4;"<?xml version=""1.0""?>\n<Clock xmlns:dt=""urn:schemas-microsoft-com:datatypes""><Description dt:dt=""string"">E-Prime Primary Realtime Clock</Description><StartTime><Timestamp dt:dt=""int"">0</Timestamp><DateUtc dt:dt=""string"">2023-11-14T11:52:29Z</DateUtc></StartTime><FrequencyChanges><FrequencyChange><Frequency dt:dt=""r8"">3221767</Frequency><Timestamp dt:dt=""r8"">34319367791</Timestamp><Current dt:dt=""r8"">0</Current><DateUtc dt:dt=""string"">2023-11-14T11:52:29Z</DateUtc></FrequencyChange></FrequencyChanges></Clock>\n";TMS_Ibrahim-59-4;60.015;1.0.0.561;1;m;-39752143;2.0.10.356;2.0.10.242;11-14-2023;14/11/2023 11:52;12:52:29;2.0.10.147;0;;-999999;14;14941;0;1;3602;18543;1;1;1;2;1;0;1;BlockProcFischi;BlockList;1;125;0;;-999999;6;20101;0;1;346;20447;1;1;1;1;ProcFischi1;ListBlockFischi;5;1;1;0;0;5;Po5_B;225;4;ug;5;2;52;1;5;4;1;TrialProc;1025;990;Po5_B;336;1824;1488;ListFischi1;0;;0;210;51758;13;15;1848;53606;360;1;1848;1;510;518;1488;1;1
TMS_Ibrahim;59;4;"<?xml version=""1.0""?>\n<Clock xmlns:dt=""urn:schemas-microsoft-com:datatypes""><Description dt:dt=""string"">E-Prime Primary Realtime Clock</Description><StartTime><Timestamp dt:dt=""int"">0</Timestamp><DateUtc dt:dt=""string"">2023-11-14T11:52:29Z</DateUtc></StartTime><FrequencyChanges><FrequencyChange><Frequency dt:dt=""r8"">3221767</Frequency><Timestamp dt:dt=""r8"">34319367791</Timestamp><Current dt:dt=""r8"">0</Current><DateUtc dt:dt=""string"">2023-11-14T11:52:29Z</DateUtc></FrequencyChange></FrequencyChanges></Clock>\n";TMS_Ibrahim-59-4;60.015;1.0.0.561;1;m;-39752143;2.0.10.356;2.0.10.242;11-14-2023;14/11/2023 11:52;12:52:29;2.0.10.147;0;;-999999;14;14941;0;1;3602;18543;1;1;1;2;1;0;1;BlockProcFischi;BlockList;1;125;0;;-999999;6;20101;0;1;346;20447;1;1;1;1;ProcFischi1;ListBlockFischi;6;1;2;0;0;3;Pr2_B;225;3;ug;3;2;17;1;6;3;1;TrialProc;2528;745;Pr2_B;254;1533;1279;ListFischi1;0;;0;204;58884;19;13;1554;60438;434;1;1554;1;875;484;1120;1;1
TMS_Ibrahim;59;4;"<?xml version=""1.0""?>\n<Clock xmlns:dt=""urn:schemas-microsoft-com:datatypes""><Description dt:dt=""string"">E-Prime Primary Realtime Clock</Description><StartTime><Timestamp dt:dt=""int"">0</Timestamp><DateUtc dt:dt=""string"">2023-11-14T11:52:29Z</DateUtc></StartTime><FrequencyChanges><FrequencyChange><Frequency dt:dt=""r8"">3221767</Frequency><Timestamp dt:dt=""r8"">34319367791</Timestamp><Current dt:dt=""r8"">0</Current><DateUtc dt:dt=""string"">2023-11-14T11:52:29Z</DateUtc></FrequencyChange></FrequencyChanges></Clock>\n";TMS_Ibrahim-59-4;60.015;1.0.0.561;1;m;-39752143;2.0.10.356;2.0.10.242;11-14-2023;14/11/2023 11:52;12:52:29;2.0.10.147;0;;-999999;14;14941;0;1;3602;18543;1;1;1;2;1;0;1;BlockProcFischi;BlockList;1;125;0;;-999999;6;20101;0;1;346;20447;1;1;1;1;ProcFischi1;ListBlockFischi;7;1;1;0;0;3;Po2_B;225;2;op;3;2;43;1;7;2;0;TrialProc;1116;1593;Po2_B;140;1967;1827;ListFischi1;0;;1;209;66033;18;133;2853;68886;453;1;1988;1;705;259;1535;1;1
TMS_Ibrahim;59;4;"<?xml version=""1.0""?>\n<Clock xmlns:dt=""urn:schemas-microsoft-com:datatypes""><Description dt:dt=""string"">E-Prime Primary Realtime Clock</Description><StartTime><Timestamp dt:dt=""int"">0</Timestamp><DateUtc dt:dt=""string"">2023-11-14T11:52:29Z</DateUtc></StartTime><FrequencyChanges><FrequencyChange><Frequency dt:dt=""r8"">3221767</Frequency><Timestamp dt:dt=""r8"">34319367791</Timestamp><Current dt:dt=""r8"">0</Current><DateUtc dt:dt=""string"">2023-11-14T11:52:29Z</DateUtc></FrequencyChange></FrequencyChanges></Clock>\n";TMS_Ibrahim-59-4;60.015;1.0.0.561;1;m;-39752143;2.0.10.356;2.0.10.242;11-14-2023;14/11/2023 11:52;12:52:29;2.0.10.147;0;;-999999;14;14941;0;1;3602;18543;1;1;1;2;1;0;1;BlockProcFischi;BlockList;1;125;0;;-999999;6;20101;0;1;346;20447;1;1;1;1;ProcFischi1;ListBlockFischi;8;1;1;0;1;5;Po8_B;225;4;ug;5;2;53;1;8;4;1;TrialProc;1054;1258;Po8_B;32;1624;1592;ListFischi1;0;;1;203;72499;17;15;1651;74150;355;1;1651;1;473;600;1296;1;1
TMS_Ibrahim;59;4;"<?xml version=""1.0""?>\n<Clock xmlns:dt=""urn:schemas-microsoft-com:datatypes""><Description dt:dt=""string"">E-Prime Primary Realtime Clock</Description><StartTime><Timestamp dt:dt=""int"">0</Timestamp><DateUtc dt:dt=""string"">2023-11-14T11:52:29Z</DateUtc></StartTime><FrequencyChanges><FrequencyChange><Frequency dt:dt=""r8"">3221767</Frequency><Timestamp dt:dt=""r8"">34319367791</Timestamp><Current dt:dt=""r8"">0</Current><DateUtc dt:dt=""string"">2023-11-14T11:52:29Z</DateUtc></FrequencyChange></FrequencyChanges></Clock>\n";TMS_Ibrahim-59-4;60.015;1.0.0.561;1;m;-39752143;2.0.10.356;2.0.10.242;11-14-2023;14/11/2023 11:52;12:52:29;2.0.10.147;0;;-999999;14;14941;0;1;3602;18543;1;1;1;2;1;0;1;BlockProcFischi;BlockList;1;125;0;;-999999;6;20101;0;1;346;20447;1;1;1;1;ProcFischi1;ListBlockFischi;9;1;1;0;0;5;Po2_B;200;4;ug;5;2;49;1;9;4;1;TrialProc;1017;1588;Po2_B;15;1805;1820;ListFischi1;0;;1;203;79786;12;15;1836;81622;140;1;1836;1;510;226;1696;1;1
TMS_Ibrahim;59;4;"<?xml version=""1.0""?>\n<Clock xmlns:dt=""urn:schemas-microsoft-com:datatypes""><Description dt:dt=""string"">E-Prime Primary Realtime Clock</Description><StartTime><Timestamp dt:dt=""int"">0</Timestamp><DateUtc dt:dt=""string"">2023-11-14T11:52:29Z</DateUtc></StartTime><FrequencyChanges><FrequencyChange><Frequency dt:dt=""r8"">3221767</Frequency><Timestamp dt:dt=""r8"">34319367791</Timestamp><Current dt:dt=""r8"">0</Current><DateUtc dt:dt=""string"">2023-11-14T11:52:29Z</DateUtc></FrequencyChange></FrequencyChanges></Clock>\n";TMS_Ibrahim-59-4;60.015;1.0.0.561;1;m;-39752143;2.0.10.356;2.0.10.242;11-14-2023;14/11/2023 11:52;12:52:29;2.0.10.147;0;;-999999;14;14941;0;1;3602;18543;1;1;1;2;1;0;1;BlockProcFischi;BlockList;1;125;0;;-999999;6;20101;0;1;346;20447;1;1;1;1;ProcFischi1;ListBlockFischi;10;1;2;1;0;5;Prmod_B;250;1;op;5;2;16;1;10;1;0;TrialProc;1065;1333;Prmod_B;146;1812;1666;ListFischi1;0;;0;209;86873;23;155;1901;88774;157;1;1837;1;451;275;1680;1;1
TMS_Ibrahim;59;4;"<?xml version=""1.0""?>\n<Clock xmlns:dt=""urn:schemas-microsoft-com:datatypes""><Description dt:dt=""string"">E-Prime Primary Realtime Clock</Description><StartTime><Timestamp dt:dt=""int"">0</Timestamp><DateUtc dt:dt=""string"">2023-11-14T11:52:29Z</DateUtc></StartTime><FrequencyChanges><FrequencyChange><Frequency dt:dt=""r8"">3221767</Frequency><Timestamp dt:dt=""r8"">34319367791</Timestamp><Current dt:dt=""r8"">0</Current><DateUtc dt:dt=""string"">2023-11-14T11:52:29Z</DateUtc></FrequencyChange></FrequencyChanges></Clock>\n";TMS_Ibrahim-59-4;60.015;1.0.0.561;1;m;-39752143;2.0.10.356;2.0.10.242;11-14-2023;14/11/2023 11:52;12:52:29;2.0.10.147;0;;-999999;14;14941;0;1;3602;18543;1;1;1;2;1;0;1;BlockProcFischi;BlockList;1;125;0;;-999999;6;20101;0;1;346;20447;1;1;1;1;ProcFischi1;ListBlockFischi;11;0;2;1;1;3;Prmod_B;;3;ug;5;2;32;1;11;3;1;TrialProc;836;1325;Prmod_B;373;2029;1657;ListFischi1;0;;0;205;93697;14;15;2053;95750;485;1;2053;1;780;312;1568;1;0
TMS_Ibrahim;59;4;"<?xml version=""1.0""?>\n<Clock xmlns:dt=""urn:schemas-microsoft-com:datatypes""><Description dt:dt=""string"">E-Prime Primary Realtime Clock</Description><StartTime><Timestamp dt:dt=""int"">0</Timestamp><DateUtc dt:dt=""string"">2023-11-14T11:52:29Z</DateUtc></StartTime><FrequencyChanges><FrequencyChange><Frequency dt:dt=""r8"">3221767</Frequency><Timestamp dt:dt=""r8"">34319367791</Timestamp><Current dt:dt=""r8"">0</Current><DateUtc dt:dt=""string"">2023-11-14T11:52:29Z</DateUtc></FrequencyChange></FrequencyChanges></Clock>\n";TMS_Ibrahim-59-4;60.015;1.0.0.561;1;m;-39752143;2.0.10.356;2.0.10.242;11-14-2023;14/11/2023 11:52;12:52:29;2.0.10.147;0;;-999999;14;14941;0;1;3602;18543;1;1;1;2;1;0;1;BlockProcFischi;BlockList;1;125;0;;-999999;6;20101;0;1;346;20447;1;1;1;1;ProcFischi1;ListBlockFischi;12;1;2;0;1;3;Pr2_B;225;3;ug;3;2;22;1;12;3;1;TrialProc;739;723;Pr2_B;29;1285;1256;ListFischi1;0;;0;210;100564;12;13;1314;101878;50;1;1314;1;603;254;1264;1;1
TMS_Ibrahim;59;4;"<?xml version=""1.0""?>\n<Clock xmlns:dt=""urn:schemas-microsoft-com:datatypes""><Description dt:dt=""string"">E-Prime Primary Realtime Clock</Description><StartTime><Timestamp dt:dt=""int"">0</Timestamp><DateUtc dt:dt=""string"">2023-11-14T11:52:29Z</DateUtc></StartTime><FrequencyChanges><FrequencyChange><Frequency dt:dt=""r8"">3221767</Frequency><Timestamp dt:dt=""r8"">34319367791</Timestamp><Current dt:dt=""r8"">0</Current><DateUtc dt:dt=""string"">2023-11-14T11:52:29Z</DateUtc></FrequencyChange></FrequencyChanges></Clock>\n";TMS_Ibrahim-59-4;60.015;1.0.0.561;1;m;-39752143;2.0.10.356;2.0.10.242;11-14-2023;14/11/2023 11:52;12:52:29;2.0.10.147;0;;-999999;14;14941;0;1;3602;18543;1;1;1;2;1;0;1;BlockProcFischi;BlockList;1;125;0;;-999999;6;20101;0;1;346;20447;1;1;1;1;ProcFischi1;ListBlockFischi;13;1;1;1;0;5;Pomod_B;175;4;ug;5;2;64;1;13;4;1;TrialProc;879;1330;Pomod_B;233;1931;1697;ListFischi1;0;;0;205;107720;21;155;2494;110214;478;1;1949;1;732;477;1471;1;1
TMS_Ibrahim;59;4;"<?xml version=""1.0""?>\n<Clock xmlns:dt=""urn:schemas-microsoft-com:datatypes""><Description dt:dt=""string"">E-Prime Primary Realtime Clock</Description><StartTime><Timestamp dt:dt=""int"">0</Timestamp><DateUtc dt:dt=""string"">2023-11-14T11:52:29Z</DateUtc></StartTime><FrequencyChanges><FrequencyChange><Frequency dt:dt=""r8"">3221767</Frequency><Timestamp dt:dt=""r8"">34319367791</Timestamp><Current dt:dt=""r8"">0</Current><DateUtc dt:dt=""string"">2023-11-14T11:52:29Z</DateUtc></FrequencyChange></FrequencyChanges></Clock>\n";TMS_Ibrahim-59-4;60.015;1.0.0.561;1;m;-39752143;2.0.10.356;2.0.10.242;11-14-2023;14/11/2023 11:52;12:52:29;2.0.10.147;0;;-999999;14;14941;0;1;3602;18543;1;1;1;2;1;0;1;BlockProcFischi;BlockList;1;125;0;;-999999;6;20101;0;1;346;20447;1;1;1;1;ProcFischi1;ListBlockFischi;14;1;1;0;0;3;Po3_B;200;2;op;3;2;44;1;14;2;0;TrialProc;918;1319;Po3_B;195;1781;1586;ListFischi1;0;;0;204;114479;10;13;1815;116294;231;1;1815;1;948;597;1584;1;1
TMS_Ibrahim;59;4;"<?xml version=""1.0""?>\n<Clock xmlns:dt=""urn:schemas-microsoft-com:datatypes""><Description dt:dt=""string"">E-Prime Primary Realtime Clock</Description><StartTime><Timestamp dt:dt=""int"">0</Timestamp><DateUtc dt:dt=""string"">2023-11-14T11:52:29Z</DateUtc></StartTime><FrequencyChanges><FrequencyChange><Frequency dt:dt=""r8"">3221767</Frequency><Timestamp dt:dt=""r8"">34319367791</Timestamp><Current dt:dt=""r8"">0</Current><DateUtc dt:dt=""string"">2023-11-14T11:52:29Z</DateUtc></FrequencyChange></FrequencyChanges></Clock>\n";TMS_Ibrahim-59-4;60.015;1.0.0.561;1;m;-39752143;2.0.10.356;2.0.10.242;11-14-2023;14/11/2023 11:52;12:52:29;2.0.10.147;0;;-999999;14;14941;0;1;3602;18543;1;1;1;2;1;0;1;BlockProcFischi;BlockList;1;125;0;;-999999;6;20101;0;1;346;20447;1;1;1;1;ProcFischi1;ListBlockFischi;15;1;1;0;0;3;Po8_B;200;2;op;3;2;42;1;15;2;0;TrialProc;1644;1257;Po8_B;104;1695;1591;ListFischi1;0;;0;204;122322;15;13;1715;124037;419;1;1715;1;555;498;1296;1;1
TMS_Ibrahim;59;4;"<?xml version=""1.0""?>\n<Clock xmlns:dt=""urn:schemas-microsoft-com:datatypes""><Description dt:dt=""string"">E-Prime Primary Realtime Clock</Description><StartTime><Timestamp dt:dt=""int"">0</Timestamp><DateUtc dt:dt=""string"">2023-11-14T11:52:29Z</DateUtc></StartTime><FrequencyChanges><FrequencyChange><Frequency dt:dt=""r8"">3221767</Frequency><Timestamp dt:dt=""r8"">34319367791</Timestamp><Current dt:dt=""r8"">0</Current><DateUtc dt:dt=""string"">2023-11-14T11:52:29Z</DateUtc></FrequencyChange></FrequencyChanges></Clock>\n";TMS_Ibrahim-59-4;60.015;1.0.0.561;1;m;-39752143;2.0.10.356;2.0.10.242;11-14-2023;14/11/2023 11:52;12:52:29;2.0.10.147;0;;-999999;14;14941;0;1;3602;18543;1;1;1;2;1;0;1;BlockProcFischi;BlockList;1;125;0;;-999999;6;20101;0;1;346;20447;1;1;1;1;ProcFischi1;ListBlockFischi;16;1;2;0;0;3;Pr4_B;200;3;ug;3;2;29;1;16;3;1;TrialProc;1020;685;Pr4_B;228;1477;1250;ListFischi1;0;;0;207;129495;7;13;1502;130997;430;1;1502;1;588;284;1072;1;1
TMS_Ibrahim;59;4;"<?xml version=""1.0""?>\n<Clock xmlns:dt=""urn:schemas-microsoft-com:datatypes""><Description dt:dt=""string"">E-Prime Primary Realtime Clock</Description><StartTime><Timestamp dt:dt=""int"">0</Timestamp><DateUtc dt:dt=""string"">2023-11-14T11:52:29Z</DateUtc></StartTime><FrequencyChanges><FrequencyChange><Frequency dt:dt=""r8"">3221767</Frequency><Timestamp dt:dt=""r8"">34319367791</Timestamp><Current dt:dt=""r8"">0</Current><DateUtc dt:dt=""string"">2023-11-14T11:52:29Z</DateUtc></FrequencyChange></FrequencyChanges></Clock>\n";TMS_Ibrahim-59-4;60.015;1.0.0.561;1;m;-39752143;2.0.10.356;2.0.10.242;11-14-2023;14/11/2023 11:52;12:52:29;2.0.10.147;0;;-999999;14;14941;0;1;3602;18543;1;1;1;2;1;0;1;BlockProcFischi;BlockList;1;125;0;;-999999;6;20101;0;1;346;20447;1;1;1;1;ProcFischi1;ListBlockFischi;17;1;2;0;1;3;Pr5_B;200;3;ug;3;2;30;1;17;3;1;TrialProc;873;682;Pr5_B;463;1746;1283;ListFischi1;0;;0;206;136578;6;13;1779;138357;516;1;1779;1;977;478;1263;1;1
TMS_Ibrahim;59;4;"<?xml version=""1.0""?>\n<Clock xmlns:dt=""urn:schemas-microsoft-com:datatypes""><Description dt:dt=""string"">E-Prime Primary Realtime Clock</Description><StartTime><Timestamp dt:dt=""int"">0</Timestamp><DateUtc dt:dt=""string"">2023-11-14T11:52:29Z</DateUtc></StartTime><FrequencyChanges><FrequencyChange><Frequency dt:dt=""r8"">3221767</Frequency><Timestamp dt:dt=""r8"">34319367791</Timestamp><Current dt:dt=""r8"">0</Current><DateUtc dt:dt=""string"">2023-11-14T11:52:29Z</DateUtc></FrequencyChange></FrequencyChanges></Clock>\n";TMS_Ibrahim-59-4;60.015;1.0.0.561;1;m;-39752143;2.0.10.356;2.0.10.242;11-14-2023;14/11/2023 11:52;12:52:29;2.0.10.147;0;;-999999;14;14941;0;1;3602;18543;1;1;1;2;1;0;1;BlockProcFischi;BlockList;1;125;0;;-999999;6;20101;0;1;346;20447;1;1;1;1;ProcFischi1;ListBlockFischi;18;1;1;0;0;3;Po8_B;175;2;op;3;2;37;1;18;2;0;TrialProc;1395;1255;Po8_B;845;2434;1589;ListFischi1;0;;1;205;143487;11;13;2454;145941;294;1;2454;1;1186;247;2160;1;1
TMS_Ibrahim;59;4;"<?xml version=""1.0""?>\n<Clock xmlns:dt=""urn:schemas-microsoft-com:datatypes""><Description dt:dt=""string"">E-Prime Primary Realtime Clock</Description><StartTime><Timestamp dt:dt=""int"">0</Timestamp><DateUtc dt:dt=""string"">2023-11-14T11:52:29Z</DateUtc></StartTime><FrequencyChanges><FrequencyChange><Frequency dt:dt=""r8"">3221767</Frequency><Timestamp dt:dt=""r8"">34319367791</Timestamp><Current dt:dt=""r8"">0</Current><DateUtc dt:dt=""string"">2023-11-14T11:52:29Z</DateUtc></FrequencyChange></FrequencyChanges></Clock>\n";TMS_Ibrahim-59-4;60.015;1.0.0.561;1;m;-39752143;2.0.10.356;2.0.10.242;11-14-2023;14/11/2023 11:52;12:52:29;2.0.10.147;0;;-999999;14;14941;0;1;3602;18543;1;1;1;2;1;0;1;BlockProcFischi;BlockList;1;125;0;;-999999;6;20101;0;1;346;20447;1;1;1;1;ProcFischi1;ListBlockFischi;19;0;1;0;1;3;Po5_B;;2;op;0;2;41;1;19;2;0;TrialProc;2156;990;Po5_B;61;1552;1490;ListFischi1;0;;1;204;150216;14;3;1581;151797;1;1;1;1;538;336;0;0;0
TMS_Ibrahim;59;4;"<?xml version=""1.0""?>\n<Clock xmlns:dt=""urn:schemas-microsoft-com:datatypes""><Description dt:dt=""string"">E-Prime Primary Realtime Clock</Description><StartTime><Timestamp dt:dt=""int"">0</Timestamp><DateUtc dt:dt=""string"">2023-11-14T11:52:29Z</DateUtc></StartTime><FrequencyChanges><FrequencyChange><Frequency dt:dt=""r8"">3221767</Frequency><Timestamp dt:dt=""r8"">34319367791</Timestamp><Current dt:dt=""r8"">0</Current><DateUtc dt:dt=""string"">2023-11-14T11:52:29Z</DateUtc></FrequencyChange></FrequencyChanges></Clock>\n";TMS_Ibrahim-59-4;60.015;1.0.0.561;1;m;-39752143;2.0.10.356;2.0.10.242;11-14-2023;14/11/2023 11:52;12:52:29;2.0.10.147;0;;-999999;14;14941;0;1;3602;18543;1;1;1;2;1;0;1;BlockProcFischi;BlockList;1;125;0;;-999999;6;20101;0;1;346;20447;1;1;1;1;ProcFischi1;ListBlockFischi;20;1;2;0;0;5;Pr2_B;225;1;op;5;2;1;1;20;1;0;TrialProc;945;715;Pr2_B;253;1501;1248;ListFischi1;0;;0;206;157257;5;15;1532;158789;412;1;1532;1;684;570;1120;1;1
TMS_Ibrahim;59;4;"<?xml version=""1.0""?>\n<Clock xmlns:dt=""urn:schemas-microsoft-com:datatypes""><Description dt:dt=""string"">E-Prime Primary Realtime Clock</Description><StartTime><Timestamp dt:dt=""int"">0</Timestamp><DateUtc dt:dt=""string"">2023-11-14T11:52:29Z</DateUtc></StartTime><FrequencyChanges><FrequencyChange><Frequency dt:dt=""r8"">3221767</Frequency><Timestamp dt:dt=""r8"">34319367791</Timestamp><Current dt:dt=""r8"">0</Current><DateUtc dt:dt=""string"">2023-11-14T11:52:29Z</DateUtc></FrequencyChange></FrequencyChanges></Clock>\n";TMS_Ibrahim-59-4;60.015;1.0.0.561;1;m;-39752143;2.0.10.356;2.0.10.242;11-14-2023;14/11/2023 11:52;12:52:29;2.0.10.147;0;;-999999;14;14941;0;1;3602;18543;1;1;1;2;1;0;1;BlockProcFischi;BlockList;1;125;0;;-999999;6;20101;0;1;346;20447;1;1;1;1;ProcFischi1;ListBlockFischi;21;1;1;0;1;5;Po8_B;175;4;ug;5;2;58;1;21;4;1;TrialProc;1653;1257;Po8_B;61;1652;1590;ListFischi1;0;;0;205;164012;15;15;1673;165685;665;1;1673;1;514;446;1008;1;1
TMS_Ibrahim;59;4;"<?xml version=""1.0""?>\n<Clock xmlns:dt=""urn:schemas-microsoft-com:datatypes""><Description dt:dt=""string"">E-Prime Primary Realtime Clock</Description><StartTime><Timestamp dt:dt=""int"">0</Timestamp><DateUtc dt:dt=""string"">2023-11-14T11:52:29Z</DateUtc></StartTime><FrequencyChanges><FrequencyChange><Frequency dt:dt=""r8"">3221767</Frequency><Timestamp dt:dt=""r8"">34319367791</Timestamp><Current dt:dt=""r8"">0</Current><DateUtc dt:dt=""string"">2023-11-14T11:52:29Z</DateUtc></FrequencyChange></FrequencyChanges></Clock>\n";TMS_Ibrahim-59-4;60.015;1.0.0.561;1;m;-39752143;2.0.10.356;2.0.10.242;11-14-2023;14/11/2023 11:52;12:52:29;2.0.10.147;0;;-999999;14;14941;0;1;3602;18543;1;1;1;2;1;0;1;BlockProcFischi;BlockList;1;125;0;;-999999;6;20101;0;1;346;20447;1;1;1;1;ProcFischi1;ListBlockFischi;22;1;1;0;0;5;Po4_B;150;4;ug;5;2;51;1;22;4;1;TrialProc;1044;1357;Po4_B;146;1577;1723;ListFischi1;0;;0;205;172294;14;15;1599;173893;511;1;1599;1;379;204;1088;1;1
TMS_Ibrahim;59;4;"<?xml version=""1.0""?>\n<Clock xmlns:dt=""urn:schemas-microsoft-com:datatypes""><Description dt:dt=""string"">E-Prime Primary Realtime Clock</Description><StartTime><Timestamp dt:dt=""int"">0</Timestamp><DateUtc dt:dt=""string"">2023-11-14T11:52:29Z</DateUtc></StartTime><FrequencyChanges><FrequencyChange><Frequency dt:dt=""r8"">3221767</Frequency><Timestamp dt:dt=""r8"">34319367791</Timestamp><Current dt:dt=""r8"">0</Current><DateUtc dt:dt=""string"">2023-11-14T11:52:29Z</DateUtc></FrequencyChange></FrequencyChanges></Clock>\n";TMS_Ibrahim-59-4;60.015;1.0.0.561;1;m;-39752143;2.0.10.356;2.0.10.242;11-14-2023;14/11/2023 11:52;12:52:29;2.0.10.147;0;;-999999;14;14941;0;1;3602;18543;1;1;1;2;1;0;1;BlockProcFischi;BlockList;1;125;0;;-999999;6;20101;0;1;346;20447;1;1;1;1;ProcFischi1;ListBlockFischi;23;1;2;0;1;5;Pr3_B;225;1;op;5;2;7;1;23;1;0;TrialProc;1005;731;Pr3_B;40;1772;1731;ListFischi1;0;;1;204;179451;22;15;1802;181253;314;1;1802;1;630;211;1488;1;1
TMS_Ibrahim;59;4;"<?xml version=""1.0""?>\n<Clock xmlns:dt=""urn:schemas-microsoft-com:datatypes""><Description dt:dt=""string"">E-Prime Primary Realtime Clock</Description><StartTime><Timestamp dt:dt=""int"">0</Timestamp><DateUtc dt:dt=""string"">2023-11-14T11:52:29Z</DateUtc></StartTime><FrequencyChanges><FrequencyChange><Frequency dt:dt=""r8"">3221767</Frequency><Timestamp dt:dt=""r8"">34319367791</Timestamp><Current dt:dt=""r8"">0</Current><DateUtc dt:dt=""string"">2023-11-14T11:52:29Z</DateUtc></FrequencyChange></FrequencyChanges></Clock>\n";TMS_Ibrahim-59-4;60.015;1.0.0.561;1;m;-39752143;2.0.10.356;2.0.10.242;11-14-2023;14/11/2023 11:52;12:52:29;2.0.10.147;0;;-999999;14;14941;0;1;3602;18543;1;1;1;2;1;0;1;BlockProcFischi;BlockList;1;125;0;;-999999;6;20101;0;1;346;20447;1;1;1;1;ProcFischi1;ListBlockFischi;24;1;1;0;1;3;Po3_B;175;2;op;3;2;39;1;24;2;0;TrialProc;879;1327;Po3_B;97;1692;1594;ListFischi1;0;;1;208;186720;18;133;2293;189013;549;1;1717;1;491;511;1168;1;1
TMS_Ibrahim;59;4;"<?xml version=""1.0""?>\n<Clock xmlns:dt=""urn:schemas-microsoft-com:datatypes""><Description dt:dt=""string"">E-Prime Primary Realtime Clock</Description><StartTime><Timestamp dt:dt=""int"">0</Timestamp><DateUtc dt:dt=""string"">2023-11-14T11:52:29Z</DateUtc></StartTime><FrequencyChanges><FrequencyChange><Frequency dt:dt=""r8"">3221767</Frequency><Timestamp dt:dt=""r8"">34319367791</Timestamp><Current dt:dt=""r8"">0</Current><DateUtc dt:dt=""string"">2023-11-14T11:52:29Z</DateUtc></FrequencyChange></FrequencyChanges></Clock>\n";TMS_Ibrahim-59-4;60.015;1.0.0.561;1;m;-39752143;2.0.10.356;2.0.10.242;11-14-2023;14/11/2023 11:52;12:52:29;2.0.10.147;0;;-999999;14;14941;0;1;3602;18543;1;1;1;2;1;0;1;BlockProcFischi;BlockList;1;125;0;;-999999;6;20101;0;1;346;20447;1;1;1;1;ProcFischi1;ListBlockFischi;25;1;2;0;2;3;Pr3_B;200;3;ug;3;2;23;1;25;3;1;TrialProc;985;724;Pr3_B;71;1794;1724;ListFischi1;0;;0;206;193439;14;13;1814;195253;614;1;1814;1;593;481;1200;1;1
TMS_Ibrahim;59;4;"<?xml version=""1.0""?>\n<Clock xmlns:dt=""urn:schemas-microsoft-com:datatypes""><Description dt:dt=""string"">E-Prime Primary Realtime Clock</Description><StartTime><Timestamp dt:dt=""int"">0</Timestamp><DateUtc dt:dt=""string"">2023-11-14T11:52:29Z</DateUtc></StartTime><FrequencyChanges><FrequencyChange><Frequency dt:dt=""r8"">3221767</Frequency><Timestamp dt:dt=""r8"">34319367791</Timestamp><Current dt:dt=""r8"">0</Current><DateUtc dt:dt=""string"">2023-11-14T11:52:29Z</DateUtc></FrequencyChange></FrequencyChanges></Clock>\n";TMS_Ibrahim-59-4;60.015;1.0.0.561;1;m;-39752143;2.0.10.356;2.0.10.242;11-14-2023;14/11/2023 11:52;12:52:29;2.0.10.147;0;;-999999;14;14941;0;1;3602;18543;1;1;1;2;1;0;1;BlockProcFischi;BlockList;1;125;0;;-999999;6;20101;0;1;346;20447;1;1;1;1;ProcFischi1;ListBlockFischi;26;1;2;0;0;3;Pr5_B;175;3;ug;3;2;20;1;26;3;1;TrialProc;859;690;Pr5_B;196;1485;1290;ListFischi1;0;;1;204;200904;13;13;1516;202420;412;1;1516;1;570;268;1104;1;1
TMS_Ibrahim;59;4;"<?xml version=""1.0""?>\n<Clock xmlns:dt=""urn:schemas-microsoft-com:datatypes""><Description dt:dt=""string"">E-Prime Primary Realtime Clock</Description><StartTime><Timestamp dt:dt=""int"">0</Timestamp><DateUtc dt:dt=""string"">2023-11-14T11:52:29Z</DateUtc></StartTime><FrequencyChanges><FrequencyChange><Frequency dt:dt=""r8"">3221767</Frequency><Timestamp dt:dt=""r8"">34319367791</Timestamp><Current dt:dt=""r8"">0</Current><DateUtc dt:dt=""string"">2023-11-14T11:52:29Z</DateUtc></FrequencyChange></FrequencyChanges></Clock>\n";TMS_Ibrahim-59-4;60.015;1.0.0.561;1;m;-39752143;2.0.10.356;2.0.10.242;11-14-2023;14/11/2023 11:52;12:52:29;2.0.10.147;0;;-999999;14;14941;0;1;3602;18543;1;1;1;2;1;0;1;BlockProcFischi;BlockList;1;125;0;;-999999;6;20101;0;1;346;20447;1;1;1;1;ProcFischi1;ListBlockFischi;27;1;1;0;0;3;Po5_B;150;2;op;3;2;46;1;27;2;0;TrialProc;1328;986;Po5_B;562;2048;1486;ListFischi1;0;;1;203;208422;10;133;2958;211380;1358;1;2078;1;1143;572;720;1;1
TMS_Ibrahim;59;4;"<?xml version=""1.0""?>\n<Clock xmlns:dt=""urn:schemas-microsoft-com:datatypes""><Description dt:dt=""string"">E-Prime Primary Realtime Clock</Description><StartTime><Timestamp dt:dt=""int"">0</Timestamp><DateUtc dt:dt=""string"">2023-11-14T11:52:29Z</DateUtc></StartTime><FrequencyChanges><FrequencyChange><Frequency dt:dt=""r8"">3221767</Frequency><Timestamp dt:dt=""r8"">34319367791</Timestamp><Current dt:dt=""r8"">0</Current><DateUtc dt:dt=""string"">2023-11-14T11:52:29Z</DateUtc></FrequencyChange></FrequencyChanges></Clock>\n";TMS_Ibrahim-59-4;60.015;1.0.0.561;1;m;-39752143;2.0.10.356;2.0.10.242;11-14-2023;14/11/2023 11:52;12:52:29;2.0.10.147;0;;-999999;14;14941;0;1;3602;18543;1;1;1;2;1;0;1;BlockProcFischi;BlockList;1;125;0;;-999999;6;20101;0;1;346;20447;1;1;1;1;ProcFischi1;ListBlockFischi;28;1;2;0;0;3;Pr8_B;175;3;ug;3;2;21;1;28;3;1;TrialProc;1021;735;Pr8_B;20;1788;1768;ListFischi1;0;;0;211;214672;25;13;1812;216484;852;1;1812;1;539;422;960;1;1
TMS_Ibrahim;59;4;"<?xml version=""1.0""?>\n<Clock xmlns:dt=""urn:schemas-microsoft-com:datatypes""><Description dt:dt=""string"">E-Prime Primary Realtime Clock</Description><StartTime><Timestamp dt:dt=""int"">0</Timestamp><DateUtc dt:dt=""string"">2023-11-14T11:52:29Z</DateUtc></StartTime><FrequencyChanges><FrequencyChange><Frequency dt:dt=""r8"">3221767</Frequency><Timestamp dt:dt=""r8"">34319367791</Timestamp><Current dt:dt=""r8"">0</Current><DateUtc dt:dt=""string"">2023-11-14T11:52:29Z</DateUtc></FrequencyChange></FrequencyChanges></Clock>\n";TMS_Ibrahim-59-4;60.015;1.0.0.561;1;m;-39752143;2.0.10.356;2.0.10.242;11-14-2023;14/11/2023 11:52;12:52:29;2.0.10.147;0;;-999999;14;14941;0;1;3602;18543;1;1;1;2;1;0;1;BlockProcFischi;BlockList;1;125;0;;-999999;6;20101;0;1;346;20447;1;1;1;1;ProcFischi1;ListBlockFischi;29;1;1;0;1;3;Po3_B;150;2;op;3;2;34;1;29;2;0;TrialProc;1242;1330;Po3_B;23;1573;1596;ListFischi1;0;;0;212;221792;20;13;1604;223396;500;1;1604;1;519;553;1104;1;1
TMS_Ibrahim;59;4;"<?xml version=""1.0""?>\n<Clock xmlns:dt=""urn:schemas-microsoft-com:datatypes""><Description dt:dt=""string"">E-Prime Primary Realtime Clock</Description><StartTime><Timestamp dt:dt=""int"">0</Timestamp><DateUtc dt:dt=""string"">2023-11-14T11:52:29Z</DateUtc></StartTime><FrequencyChanges><FrequencyChange><Frequency dt:dt=""r8"">3221767</Frequency><Timestamp dt:dt=""r8"">34319367791</Timestamp><Current dt:dt=""r8"">0</Current><DateUtc dt:dt=""string"">2023-11-14T11:52:29Z</DateUtc></FrequencyChange></FrequencyChanges></Clock>\n";TMS_Ibrahim-59-4;60.015;1.0.0.561;1;m;-39752143;2.0.10.356;2.0.10.242;11-14-2023;14/11/2023 11:52;12:52:29;2.0.10.147;0;;-999999;14;14941;0;1;3602;18543;1;1;1;2;1;0;1;BlockProcFischi;BlockList;1;125;0;;-999999;6;20101;0;1;346;20447;1;1;1;1;ProcFischi1;ListBlockFischi;30;0;2;0;0;3;Pr4_B;;3;ug;5;2;24;1;30;3;1;TrialProc;1589;698;Pr4_B;94;1358;1264;ListFischi1;0;;0;212;229157;20;151;3295;232452;319;1;1391;1;656;388;1072;1;0
TMS_Ibrahim;59;4;"<?xml version=""1.0""?>\n<Clock xmlns:dt=""urn:schemas-microsoft-com:datatypes""><Description dt:dt=""string"">E-Prime Primary Realtime Clock</Description><StartTime><Timestamp dt:dt=""int"">0</Timestamp><DateUtc dt:dt=""string"">2023-11-14T11:52:29Z</DateUtc></StartTime><FrequencyChanges><FrequencyChange><Frequency dt:dt=""r8"">3221767</Frequency><Timestamp dt:dt=""r8"">34319367791</Timestamp><Current dt:dt=""r8"">0</Current><DateUtc dt:dt=""string"">2023-11-14T11:52:29Z</DateUtc></FrequencyChange></FrequencyChanges></Clock>\n";TMS_Ibrahim-59-4;60.015;1.0.0.561;1;m;-39752143;2.0.10.356;2.0.10.242;11-14-2023;14/11/2023 11:52;12:52:29;2.0.10.147;0;;-999999;14;14941;0;1;3602;18543;1;1;1;2;1;0;1;BlockProcFischi;BlockList;1;125;0;;-999999;6;20101;0;1;346;20447;1;1;1;1;ProcFischi1;ListBlockFischi;31;1;2;0;0;5;Pr8_B;200;1;op;5;2;10;1;31;1;0;TrialProc;802;6000;Pr8_B;78;6000;6000;ListFischi1;0;;0;210;234595;14;15;1857;236452;352;1;1857;1;652;342;1505;1;1
TMS_Ibrahim;59;4;"<?xml version=""1.0""?>\n<Clock xmlns:dt=""urn:schemas-microsoft-com:datatypes""><Description dt:dt=""string"">E-Prime Primary Realtime Clock</Description><StartTime><Timestamp dt:dt=""int"">0</Timestamp><DateUtc dt:dt=""string"">2023-11-14T11:52:29Z</DateUtc></StartTime><FrequencyChanges><FrequencyChange><Frequency dt:dt=""r8"">3221767</Frequency><Timestamp dt:dt=""r8"">34319367791</Timestamp><Current dt:dt=""r8"">0</Current><DateUtc dt:dt=""string"">2023-11-14T11:52:29Z</DateUtc></FrequencyChange></FrequencyChanges></Clock>\n";TMS_Ibrahim-59-4;60.015;1.0.0.561;1;m;-39752143;2.0.10.356;2.0.10.242;11-14-2023;14/11/2023 11:52;12:52:29;2.0.10.147;0;;-999999;14;14941;0;1;3602;18543;1;1;1;2;1;0;1;BlockProcFischi;BlockList;1;125;0;;-999999;6;20101;0;1;346;20447;1;1;1;1;ProcFischi1;ListBlockFischi;32;1;2;0;0;5;Pr2_B;175;1;op;5;2;11;1;32;1;0;TrialProc;820;725;Pr2_B;357;1616;1258;ListFischi1;0;;0;207;241809;15;15;1635;243444;515;1;1635;1;505;329;1120;1;1
TMS_Ibrahim;59;4;"<?xml version=""1.0""?>\n<Clock xmlns:dt=""urn:schemas-microsoft-com:datatypes""><Description dt:dt=""string"">E-Prime Primary Realtime Clock</Description><StartTime><Timestamp dt:dt=""int"">0</Timestamp><DateUtc dt:dt=""string"">2023-11-14T11:52:29Z</DateUtc></StartTime><FrequencyChanges><FrequencyChange><Frequency dt:dt=""r8"">3221767</Frequency><Timestamp dt:dt=""r8"">34319367791</Timestamp><Current dt:dt=""r8"">0</Current><DateUtc dt:dt=""string"">2023-11-14T11:52:29Z</DateUtc></FrequencyChange></FrequencyChanges></Clock>\n";TMS_Ibrahim-59-4;60.015;1.0.0.561;1;m;-39752143;2.0.10.356;2.0.10.242;11-14-2023;14/11/2023 11:52;12:52:29;2.0.10.147;0;;-999999;14;14941;0;1;3602;18543;1;1;1;2;1;0;1;BlockProcFischi;BlockList;1;125;0;;-999999;6;20101;0;1;346;20447;1;1;1;1;ProcFischi1;ListBlockFischi;33;1;1;0;0;5;Po2_B;150;4;ug;5;2;59;1;33;4;1;TrialProc;1361;1597;Po2_B;86;1916;1831;ListFischi1;0;;1;211;248834;21;15;1938;250772;1218;1;1938;1;627;592;720;1;1
TMS_Ibrahim;59;4;"<?xml version=""1.0""?>\n<Clock xmlns:dt=""urn:schemas-microsoft-com:datatypes""><Description dt:dt=""string"">E-Prime Primary Realtime Clock</Description><StartTime><Timestamp dt:dt=""int"">0</Timestamp><DateUtc dt:dt=""string"">2023-11-14T11:52:29Z</DateUtc></StartTime><FrequencyChanges><FrequencyChange><Frequency dt:dt=""r8"">3221767</Frequency><Timestamp dt:dt=""r8"">34319367791</Timestamp><Current dt:dt=""r8"">0</Current><DateUtc dt:dt=""string"">2023-11-14T11:52:29Z</DateUtc></FrequencyChange></FrequencyChanges></Clock>\n";TMS_Ibrahim-59-4;60.015;1.0.0.561;1;m;-39752143;2.0.10.356;2.0.10.242;11-14-2023;14/11/2023 11:52;12:52:29;2.0.10.147;0;;-999999;14;14941;0;1;3602;18543;1;1;1;2;1;0;1;BlockProcFischi;BlockList;1;125;0;;-999999;6;20101;0;1;346;20447;1;1;1;1;ProcFischi1;ListBlockFischi;34;1;1;0;0;5;Po4_B;125;4;ug;5;2;56;1;34;4;1;TrialProc;1523;1351;Po4_B;154;1564;1717;ListFischi1;0;;0;209;256278;9;15;1598;257876;574;1;1598;1;495;553;1024;1;1
TMS_Ibrahim;59;4;"<?xml version=""1.0""?>\n<Clock xmlns:dt=""urn:schemas-microsoft-com:datatypes""><Description dt:dt=""string"">E-Prime Primary Realtime Clock</Description><StartTime><Timestamp dt:dt=""int"">0</Timestamp><DateUtc dt:dt=""string"">2023-11-14T11:52:29Z</DateUtc></StartTime><FrequencyChanges><FrequencyChange><Frequency dt:dt=""r8"">3221767</Frequency><Timestamp dt:dt=""r8"">34319367791</Timestamp><Current dt:dt=""r8"">0</Current><DateUtc dt:dt=""string"">2023-11-14T11:52:29Z</DateUtc></FrequencyChange></FrequencyChanges></Clock>\n";TMS_Ibrahim-59-4;60.015;1.0.0.561;1;m;-39752143;2.0.10.356;2.0.10.242;11-14-2023;14/11/2023 11:52;12:52:29;2.0.10.147;0;;-999999;14;14941;0;1;3602;18543;1;1;1;2;1;0;1;BlockProcFischi;BlockList;1;125;0;;-999999;6;20101;0;1;346;20447;1;1;1;1;ProcFischi1;ListBlockFischi;35;1;2;0;1;5;Pr8_B;175;1;op;5;2;5;1;35;1;0;TrialProc;1526;731;Pr8_B;195;1959;1764;ListFischi1;0;;1;204;263564;21;15;1991;265555;280;1;1991;1;732;269;1711;1;1
TMS_Ibrahim;59;4;"<?xml version=""1.0""?>\n<Clock xmlns:dt=""urn:schemas-microsoft-com:datatypes""><Description dt:dt=""string"">E-Prime Primary Realtime Clock</Description><StartTime><Timestamp dt:dt=""int"">0</Timestamp><DateUtc dt:dt=""string"">2023-11-14T11:52:29Z</DateUtc></StartTime><FrequencyChanges><FrequencyChange><Frequency dt:dt=""r8"">3221767</Frequency><Timestamp dt:dt=""r8"">34319367791</Timestamp><Current dt:dt=""r8"">0</Current><DateUtc dt:dt=""string"">2023-11-14T11:52:29Z</DateUtc></FrequencyChange></FrequencyChanges></Clock>\n";TMS_Ibrahim-59-4;60.015;1.0.0.561;1;m;-39752143;2.0.10.356;2.0.10.242;11-14-2023;14/11/2023 11:52;12:52:29;2.0.10.147;0;;-999999;14;14941;0;1;3602;18543;1;1;1;2;1;0;1;BlockProcFischi;BlockList;1;125;0;;-999999;6;20101;0;1;346;20447;1;1;1;1;ProcFischi1;ListBlockFischi;36;0;2;0;0;3;Pr5_B;;3;ug;5;2;25;1;36;3;1;TrialProc;1469;689;Pr5_B;380;1670;1290;ListFischi1;0;;0;205;270504;13;15;1692;272196;812;1;1692;1;906;437;880;1;0
