ExperimentName;Subject;Session;Clock.Information;DataFile.Basename;Display.RefreshRate;ExperimentVersion;Group;Name;RandomSeed;RuntimeVersion;RuntimeVersionExpected;SessionDate;SessionStartDateTimeUtc;SessionTime;StudioVersion;SyncEprimeKinB1.ACC;SyncEprimeKinB1.CRESP;SyncEprimeKinB1.DurationError;SyncEprimeKinB1.OnsetDelay;SyncEprimeKinB1.OnsetTime;SyncEprimeKinB1.OnsetToOnsetTime;SyncEprimeKinB1.RESP;SyncEprimeKinB1.RT;SyncEprimeKinB1.RTTime;Block;BlockINT_0Fischi_1Suoni;BlockList;BlockList.Cycle;BlockList.Sample;ContatoreSuoni;NumSuono;Procedure[Block];Running[Block];Suonilist;SuonoFinSoglia;SyncEprimeKinFischi1.ACC;SyncEprimeKinFischi1.CRESP;SyncEprimeKinFischi1.DurationError;SyncEprimeKinFischi1.OnsetDelay;SyncEprimeKinFischi1.OnsetTime;SyncEprimeKinFischi1.OnsetToOnsetTime;SyncEprimeKinFischi1.RESP;SyncEprimeKinFischi1.RT;SyncEprimeKinFischi1.RTTime;Trial;ListBlockFischi;ListBlockFischi.Cycle;ListBlockFischi.Sample;Procedure[Trial];Running[Trial];SubTrial;AccSogg1;Avatar_Giu1_Su2;CatchTrial_CORR;ContatoreFinestraSoglia;CorrectResponse;File_Name;FinestraSoglia;IdcondEEG;Istruzione;KeySoggetto1;KeySoggetto2;ListFischi1;ListFischi1.Cycle;ListFischi1.Sample;NumeroSuono;OP_UG;Procedure[SubTrial];Resoconto.RT;RTChange;RTimage;RTNetto;RTSubj;RTTouch;Running[SubTrial];StartGo.ACC;StartGo.CRESP;StartGo.DurationError;StartGo.OnsetDelay;StartGo.OnsetTime;StartGo.OnsetToOnsetTime;StartGo.RESP;StartGo.RT;StartGo.RTTime;StartSoggetto1;StartSoggetto2;StopSoggetto1;StopSoggetto2;StopTrial.RT;tempo;TMSoggetto1;ValiditaTrial;Vincitore
TMS_Ibrahim;60;1;"<?xml version=""1.0""?>\n<Clock xmlns:dt=""urn:schemas-microsoft-com:datatypes""><Description dt:dt=""string"">E-Prime Primary Realtime Clock</Description><StartTime><Timestamp dt:dt=""int"">0</Timestamp><DateUtc dt:dt=""string"">2023-11-16T14:57:32Z</DateUtc></StartTime><FrequencyChanges><FrequencyChange><Frequency dt:dt=""r8"">3221757</Frequency><Timestamp dt:dt=""r8"">15675494927</Timestamp><Current dt:dt=""r8"">0</Current><DateUtc dt:dt=""string"">2023-11-16T14:57:32Z</DateUtc></FrequencyChange></FrequencyChanges></Clock>\n";TMS_Ibrahim-60-1;60.015;1.0.0.561;1;m;-1503739768;2.0.10.356;2.0.10.242;11-16-2023;16/11/2023 14:57;15:57:33;2.0.10.147;0;;-999999;9;41292;0;1;1510;42802;1;1;1;2;1;0;1;BlockProcFischi;BlockList;1;175;0;;-999999;5;44559;0;1;467;45026;1;1;1;1;ProcFischi1;ListBlockFischi;1;1;2;0;0;5;Pr4_B;250;1;op;5;2;3;1;1;1;0;TrialProc;1654;699;Pr4_B;277;1541;1265;ListFischi1;0;;0;215;46881;6;15;1569;48450;561;1;1569;1;848;239;1008;1;1
TMS_Ibrahim;60;1;"<?xml version=""1.0""?>\n<Clock xmlns:dt=""urn:schemas-microsoft-com:datatypes""><Description dt:dt=""string"">E-Prime Primary Realtime Clock</Description><StartTime><Timestamp dt:dt=""int"">0</Timestamp><DateUtc dt:dt=""string"">2023-11-16T14:57:32Z</DateUtc></StartTime><FrequencyChanges><FrequencyChange><Frequency dt:dt=""r8"">3221757</Frequency><Timestamp dt:dt=""r8"">15675494927</Timestamp><Current dt:dt=""r8"">0</Current><DateUtc dt:dt=""string"">2023-11-16T14:57:32Z</DateUtc></FrequencyChange></FrequencyChanges></Clock>\n";TMS_Ibrahim-60-1;60.015;1.0.0.561;1;m;-1503739768;2.0.10.356;2.0.10.242;11-16-2023;16/11/2023 14:57;15:57:33;2.0.10.147;0;;-999999;9;41292;0;1;1510;42802;1;1;1;2;1;0;1;BlockProcFischi;BlockList;1;175;0;;-999999;5;44559;0;1;467;45026;1;1;1;1;ProcFischi1;ListBlockFischi;2;1;1;0;0;3;Po3_B;250;2;op;3;2;44;1;2;2;0;TrialProc;1688;1345;Po3_B;195;1806;1611;ListFischi1;0;;1;203;53933;18;13;1829;55762;949;1;1829;1;650;407;880;1;1
TMS_Ibrahim;60;1;"<?xml version=""1.0""?>\n<Clock xmlns:dt=""urn:schemas-microsoft-com:datatypes""><Description dt:dt=""string"">E-Prime Primary Realtime Clock</Description><StartTime><Timestamp dt:dt=""int"">0</Timestamp><DateUtc dt:dt=""string"">2023-11-16T14:57:32Z</DateUtc></StartTime><FrequencyChanges><FrequencyChange><Frequency dt:dt=""r8"">3221757</Frequency><Timestamp dt:dt=""r8"">15675494927</Timestamp><Current dt:dt=""r8"">0</Current><DateUtc dt:dt=""string"">2023-11-16T14:57:32Z</DateUtc></FrequencyChange></FrequencyChanges></Clock>\n";TMS_Ibrahim-60-1;60.015;1.0.0.561;1;m;-1503739768;2.0.10.356;2.0.10.242;11-16-2023;16/11/2023 14:57;15:57:33;2.0.10.147;0;;-999999;9;41292;0;1;1510;42802;1;1;1;2;1;0;1;BlockProcFischi;BlockList;1;175;0;;-999999;5;44559;0;1;467;45026;1;1;1;1;ProcFischi1;ListBlockFischi;3;1;2;0;0;3;Pr4_B;250;3;ug;3;2;19;1;3;3;1;TrialProc;1742;711;Pr4_B;246;1523;1277;ListFischi1;0;;0;205;61215;17;13;1555;62770;530;1;1555;1;773;326;1025;1;1
TMS_Ibrahim;60;1;"<?xml version=""1.0""?>\n<Clock xmlns:dt=""urn:schemas-microsoft-com:datatypes""><Description dt:dt=""string"">E-Prime Primary Realtime Clock</Description><StartTime><Timestamp dt:dt=""int"">0</Timestamp><DateUtc dt:dt=""string"">2023-11-16T14:57:32Z</DateUtc></StartTime><FrequencyChanges><FrequencyChange><Frequency dt:dt=""r8"">3221757</Frequency><Timestamp dt:dt=""r8"">15675494927</Timestamp><Current dt:dt=""r8"">0</Current><DateUtc dt:dt=""string"">2023-11-16T14:57:32Z</DateUtc></FrequencyChange></FrequencyChanges></Clock>\n";TMS_Ibrahim-60-1;60.015;1.0.0.561;1;m;-1503739768;2.0.10.356;2.0.10.242;11-16-2023;16/11/2023 14:57;15:57:33;2.0.10.147;0;;-999999;9;41292;0;1;1510;42802;1;1;1;2;1;0;1;BlockProcFischi;BlockList;1;175;0;;-999999;5;44559;0;1;467;45026;1;1;1;1;ProcFischi1;ListBlockFischi;4;1;1;0;0;5;Po5_B;250;4;ug;5;2;52;1;4;4;1;TrialProc;1731;996;Po5_B;108;1605;1497;ListFischi1;0;;0;206;68444;20;15;1622;70066;566;1;1622;1;445;222;1056;1;1
TMS_Ibrahim;60;1;"<?xml version=""1.0""?>\n<Clock xmlns:dt=""urn:schemas-microsoft-com:datatypes""><Description dt:dt=""string"">E-Prime Primary Realtime Clock</Description><StartTime><Timestamp dt:dt=""int"">0</Timestamp><DateUtc dt:dt=""string"">2023-11-16T14:57:32Z</DateUtc></StartTime><FrequencyChanges><FrequencyChange><Frequency dt:dt=""r8"">3221757</Frequency><Timestamp dt:dt=""r8"">15675494927</Timestamp><Current dt:dt=""r8"">0</Current><DateUtc dt:dt=""string"">2023-11-16T14:57:32Z</DateUtc></FrequencyChange></FrequencyChanges></Clock>\n";TMS_Ibrahim-60-1;60.015;1.0.0.561;1;m;-1503739768;2.0.10.356;2.0.10.242;11-16-2023;16/11/2023 14:57;15:57:33;2.0.10.147;0;;-999999;9;41292;0;1;1510;42802;1;1;1;2;1;0;1;BlockProcFischi;BlockList;1;175;0;;-999999;5;44559;0;1;467;45026;1;1;1;1;ProcFischi1;ListBlockFischi;5;1;2;0;0;3;Pr5_B;250;3;ug;3;2;25;1;5;3;1;TrialProc;1969;684;Pr5_B;293;1577;1284;ListFischi1;0;;1;203;76522;7;131;3383;79905;376;1;1608;1;685;356;1232;1;1
TMS_Ibrahim;60;1;"<?xml version=""1.0""?>\n<Clock xmlns:dt=""urn:schemas-microsoft-com:datatypes""><Description dt:dt=""string"">E-Prime Primary Realtime Clock</Description><StartTime><Timestamp dt:dt=""int"">0</Timestamp><DateUtc dt:dt=""string"">2023-11-16T14:57:32Z</DateUtc></StartTime><FrequencyChanges><FrequencyChange><Frequency dt:dt=""r8"">3221757</Frequency><Timestamp dt:dt=""r8"">15675494927</Timestamp><Current dt:dt=""r8"">0</Current><DateUtc dt:dt=""string"">2023-11-16T14:57:32Z</DateUtc></FrequencyChange></FrequencyChanges></Clock>\n";TMS_Ibrahim-60-1;60.015;1.0.0.561;1;m;-1503739768;2.0.10.356;2.0.10.242;11-16-2023;16/11/2023 14:57;15:57:33;2.0.10.147;0;;-999999;9;41292;0;1;1510;42802;1;1;1;2;1;0;1;BlockProcFischi;BlockList;1;175;0;;-999999;5;44559;0;1;467;45026;1;1;1;1;ProcFischi1;ListBlockFischi;6;1;2;0;1;5;Pr3_B;250;1;op;5;2;2;1;6;1;0;TrialProc;1327;6000;Pr3_B;157;6000;6000;ListFischi1;0;;0;203;82290;20;15;1936;84226;655;1;1936;1;525;549;1281;1;1
TMS_Ibrahim;60;1;"<?xml version=""1.0""?>\n<Clock xmlns:dt=""urn:schemas-microsoft-com:datatypes""><Description dt:dt=""string"">E-Prime Primary Realtime Clock</Description><StartTime><Timestamp dt:dt=""int"">0</Timestamp><DateUtc dt:dt=""string"">2023-11-16T14:57:32Z</DateUtc></StartTime><FrequencyChanges><FrequencyChange><Frequency dt:dt=""r8"">3221757</Frequency><Timestamp dt:dt=""r8"">15675494927</Timestamp><Current dt:dt=""r8"">0</Current><DateUtc dt:dt=""string"">2023-11-16T14:57:32Z</DateUtc></FrequencyChange></FrequencyChanges></Clock>\n";TMS_Ibrahim-60-1;60.015;1.0.0.561;1;m;-1503739768;2.0.10.356;2.0.10.242;11-16-2023;16/11/2023 14:57;15:57:33;2.0.10.147;0;;-999999;9;41292;0;1;1510;42802;1;1;1;2;1;0;1;BlockProcFischi;BlockList;1;175;0;;-999999;5;44559;0;1;467;45026;1;1;1;1;ProcFischi1;ListBlockFischi;7;1;1;0;0;3;Po3_B;225;2;op;3;2;34;1;7;2;0;TrialProc;1271;1319;Po3_B;126;1713;1587;ListFischi1;0;;1;213;89465;11;13;1737;91202;489;1;1737;1;366;340;1248;1;1
TMS_Ibrahim;60;1;"<?xml version=""1.0""?>\n<Clock xmlns:dt=""urn:schemas-microsoft-com:datatypes""><Description dt:dt=""string"">E-Prime Primary Realtime Clock</Description><StartTime><Timestamp dt:dt=""int"">0</Timestamp><DateUtc dt:dt=""string"">2023-11-16T14:57:32Z</DateUtc></StartTime><FrequencyChanges><FrequencyChange><Frequency dt:dt=""r8"">3221757</Frequency><Timestamp dt:dt=""r8"">15675494927</Timestamp><Current dt:dt=""r8"">0</Current><DateUtc dt:dt=""string"">2023-11-16T14:57:32Z</DateUtc></FrequencyChange></FrequencyChanges></Clock>\n";TMS_Ibrahim-60-1;60.015;1.0.0.561;1;m;-1503739768;2.0.10.356;2.0.10.242;11-16-2023;16/11/2023 14:57;15:57:33;2.0.10.147;0;;-999999;9;41292;0;1;1510;42802;1;1;1;2;1;0;1;BlockProcFischi;BlockList;1;175;0;;-999999;5;44559;0;1;467;45026;1;1;1;1;ProcFischi1;ListBlockFischi;8;1;1;1;0;3;Pomod_B;200;2;op;3;2;47;1;8;2;0;TrialProc;1346;1324;Pomod_B;212;1903;1691;ListFischi1;0;;1;203;96675;15;13;1935;98610;799;1;1935;1;811;247;1136;1;1
TMS_Ibrahim;60;1;"<?xml version=""1.0""?>\n<Clock xmlns:dt=""urn:schemas-microsoft-com:datatypes""><Description dt:dt=""string"">E-Prime Primary Realtime Clock</Description><StartTime><Timestamp dt:dt=""int"">0</Timestamp><DateUtc dt:dt=""string"">2023-11-16T14:57:32Z</DateUtc></StartTime><FrequencyChanges><FrequencyChange><Frequency dt:dt=""r8"">3221757</Frequency><Timestamp dt:dt=""r8"">15675494927</Timestamp><Current dt:dt=""r8"">0</Current><DateUtc dt:dt=""string"">2023-11-16T14:57:32Z</DateUtc></FrequencyChange></FrequencyChanges></Clock>\n";TMS_Ibrahim-60-1;60.015;1.0.0.561;1;m;-1503739768;2.0.10.356;2.0.10.242;11-16-2023;16/11/2023 14:57;15:57:33;2.0.10.147;0;;-999999;9;41292;0;1;1510;42802;1;1;1;2;1;0;1;BlockProcFischi;BlockList;1;175;0;;-999999;5;44559;0;1;467;45026;1;1;1;1;ProcFischi1;ListBlockFischi;9;1;1;0;0;5;Po5_B;225;4;ug;5;2;57;1;9;4;1;TrialProc;2913;996;Po5_B;385;1880;1494;ListFischi1;0;;1;213;103837;18;15;1909;105746;965;1;1909;1;734;322;944;1;1
TMS_Ibrahim;60;1;"<?xml version=""1.0""?>\n<Clock xmlns:dt=""urn:schemas-microsoft-com:datatypes""><Description dt:dt=""string"">E-Prime Primary Realtime Clock</Description><StartTime><Timestamp dt:dt=""int"">0</Timestamp><DateUtc dt:dt=""string"">2023-11-16T14:57:32Z</DateUtc></StartTime><FrequencyChanges><FrequencyChange><Frequency dt:dt=""r8"">3221757</Frequency><Timestamp dt:dt=""r8"">15675494927</Timestamp><Current dt:dt=""r8"">0</Current><DateUtc dt:dt=""string"">2023-11-16T14:57:32Z</DateUtc></FrequencyChange></FrequencyChanges></Clock>\n";TMS_Ibrahim-60-1;60.015;1.0.0.561;1;m;-1503739768;2.0.10.356;2.0.10.242;11-16-2023;16/11/2023 14:57;15:57:33;2.0.10.147;0;;-999999;9;41292;0;1;1510;42802;1;1;1;2;1;0;1;BlockProcFischi;BlockList;1;175;0;;-999999;5;44559;0;1;467;45026;1;1;1;1;ProcFischi1;ListBlockFischi;10;1;1;0;0;3;Po8_B;200;2;op;3;2;37;1;10;2;0;TrialProc;1871;1262;Po8_B;275;1870;1595;ListFischi1;0;;0;210;110900;20;13;1902;112802;686;1;1902;1;641;396;1216;1;1
TMS_Ibrahim;60;1;"<?xml version=""1.0""?>\n<Clock xmlns:dt=""urn:schemas-microsoft-com:datatypes""><Description dt:dt=""string"">E-Prime Primary Realtime Clock</Description><StartTime><Timestamp dt:dt=""int"">0</Timestamp><DateUtc dt:dt=""string"">2023-11-16T14:57:32Z</DateUtc></StartTime><FrequencyChanges><FrequencyChange><Frequency dt:dt=""r8"">3221757</Frequency><Timestamp dt:dt=""r8"">15675494927</Timestamp><Current dt:dt=""r8"">0</Current><DateUtc dt:dt=""string"">2023-11-16T14:57:32Z</DateUtc></FrequencyChange></FrequencyChanges></Clock>\n";TMS_Ibrahim-60-1;60.015;1.0.0.561;1;m;-1503739768;2.0.10.356;2.0.10.242;11-16-2023;16/11/2023 14:57;15:57:33;2.0.10.147;0;;-999999;9;41292;0;1;1510;42802;1;1;1;2;1;0;1;BlockProcFischi;BlockList;1;175;0;;-999999;5;44559;0;1;467;45026;1;1;1;1;ProcFischi1;ListBlockFischi;11;1;2;0;0;5;Pr8_B;225;1;op;5;2;10;1;11;1;0;TrialProc;2672;729;Pr8_B;412;2174;1762;ListFischi1;0;;0;206;117800;18;15;2202;120002;746;1;2202;1;816;361;1456;1;1
TMS_Ibrahim;60;1;"<?xml version=""1.0""?>\n<Clock xmlns:dt=""urn:schemas-microsoft-com:datatypes""><Description dt:dt=""string"">E-Prime Primary Realtime Clock</Description><StartTime><Timestamp dt:dt=""int"">0</Timestamp><DateUtc dt:dt=""string"">2023-11-16T14:57:32Z</DateUtc></StartTime><FrequencyChanges><FrequencyChange><Frequency dt:dt=""r8"">3221757</Frequency><Timestamp dt:dt=""r8"">15675494927</Timestamp><Current dt:dt=""r8"">0</Current><DateUtc dt:dt=""string"">2023-11-16T14:57:32Z</DateUtc></FrequencyChange></FrequencyChanges></Clock>\n";TMS_Ibrahim-60-1;60.015;1.0.0.561;1;m;-1503739768;2.0.10.356;2.0.10.242;11-16-2023;16/11/2023 14:57;15:57:33;2.0.10.147;0;;-999999;9;41292;0;1;1510;42802;1;1;1;2;1;0;1;BlockProcFischi;BlockList;1;175;0;;-999999;5;44559;0;1;467;45026;1;1;1;1;ProcFischi1;ListBlockFischi;12;1;2;0;1;3;Pr8_B;250;3;ug;3;2;26;1;12;3;1;TrialProc;1716;726;Pr8_B;80;1838;1759;ListFischi1;0;;0;205;125068;15;13;1861;126929;693;1;1861;1;438;312;1168;1;1
TMS_Ibrahim;60;1;"<?xml version=""1.0""?>\n<Clock xmlns:dt=""urn:schemas-microsoft-com:datatypes""><Description dt:dt=""string"">E-Prime Primary Realtime Clock</Description><StartTime><Timestamp dt:dt=""int"">0</Timestamp><DateUtc dt:dt=""string"">2023-11-16T14:57:32Z</DateUtc></StartTime><FrequencyChanges><FrequencyChange><Frequency dt:dt=""r8"">3221757</Frequency><Timestamp dt:dt=""r8"">15675494927</Timestamp><Current dt:dt=""r8"">0</Current><DateUtc dt:dt=""string"">2023-11-16T14:57:32Z</DateUtc></FrequencyChange></FrequencyChanges></Clock>\n";TMS_Ibrahim-60-1;60.015;1.0.0.561;1;m;-1503739768;2.0.10.356;2.0.10.242;11-16-2023;16/11/2023 14:57;15:57:33;2.0.10.147;0;;-999999;9;41292;0;1;1510;42802;1;1;1;2;1;0;1;BlockProcFischi;BlockList;1;175;0;;-999999;5;44559;0;1;467;45026;1;1;1;1;ProcFischi1;ListBlockFischi;13;1;1;0;1;5;Po4_B;225;4;ug;5;2;61;1;13;4;1;TrialProc;1270;1357;Po4_B;80;1643;1723;ListFischi1;0;;1;203;132167;14;15;1674;133841;586;1;1674;1;373;308;1088;1;1
TMS_Ibrahim;60;1;"<?xml version=""1.0""?>\n<Clock xmlns:dt=""urn:schemas-microsoft-com:datatypes""><Description dt:dt=""string"">E-Prime Primary Realtime Clock</Description><StartTime><Timestamp dt:dt=""int"">0</Timestamp><DateUtc dt:dt=""string"">2023-11-16T14:57:32Z</DateUtc></StartTime><FrequencyChanges><FrequencyChange><Frequency dt:dt=""r8"">3221757</Frequency><Timestamp dt:dt=""r8"">15675494927</Timestamp><Current dt:dt=""r8"">0</Current><DateUtc dt:dt=""string"">2023-11-16T14:57:32Z</DateUtc></FrequencyChange></FrequencyChanges></Clock>\n";TMS_Ibrahim-60-1;60.015;1.0.0.561;1;m;-1503739768;2.0.10.356;2.0.10.242;11-16-2023;16/11/2023 14:57;15:57:33;2.0.10.147;0;;-999999;9;41292;0;1;1510;42802;1;1;1;2;1;0;1;BlockProcFischi;BlockList;1;175;0;;-999999;5;44559;0;1;467;45026;1;1;1;1;ProcFischi1;ListBlockFischi;14;1;1;0;0;5;Po3_B;200;4;ug;5;2;50;1;14;4;1;TrialProc;2336;1322;Po3_B;47;1637;1589;ListFischi1;0;;0;211;139616;14;15;1665;141281;545;1;1665;1;459;462;1120;1;1
TMS_Ibrahim;60;1;"<?xml version=""1.0""?>\n<Clock xmlns:dt=""urn:schemas-microsoft-com:datatypes""><Description dt:dt=""string"">E-Prime Primary Realtime Clock</Description><StartTime><Timestamp dt:dt=""int"">0</Timestamp><DateUtc dt:dt=""string"">2023-11-16T14:57:32Z</DateUtc></StartTime><FrequencyChanges><FrequencyChange><Frequency dt:dt=""r8"">3221757</Frequency><Timestamp dt:dt=""r8"">15675494927</Timestamp><Current dt:dt=""r8"">0</Current><DateUtc dt:dt=""string"">2023-11-16T14:57:32Z</DateUtc></FrequencyChange></FrequencyChanges></Clock>\n";TMS_Ibrahim-60-1;60.015;1.0.0.561;1;m;-1503739768;2.0.10.356;2.0.10.242;11-16-2023;16/11/2023 14:57;15:57:33;2.0.10.147;0;;-999999;9;41292;0;1;1510;42802;1;1;1;2;1;0;1;BlockProcFischi;BlockList;1;175;0;;-999999;5;44559;0;1;467;45026;1;1;1;1;ProcFischi1;ListBlockFischi;15;1;1;0;1;3;Po2_B;200;2;op;3;2;43;1;15;2;0;TrialProc;1236;1586;Po2_B;49;1868;1818;ListFischi1;0;;0;211;146968;10;13;1897;148865;809;1;1897;1;413;302;1088;1;1
TMS_Ibrahim;60;1;"<?xml version=""1.0""?>\n<Clock xmlns:dt=""urn:schemas-microsoft-com:datatypes""><Description dt:dt=""string"">E-Prime Primary Realtime Clock</Description><StartTime><Timestamp dt:dt=""int"">0</Timestamp><DateUtc dt:dt=""string"">2023-11-16T14:57:32Z</DateUtc></StartTime><FrequencyChanges><FrequencyChange><Frequency dt:dt=""r8"">3221757</Frequency><Timestamp dt:dt=""r8"">15675494927</Timestamp><Current dt:dt=""r8"">0</Current><DateUtc dt:dt=""string"">2023-11-16T14:57:32Z</DateUtc></FrequencyChange></FrequencyChanges></Clock>\n";TMS_Ibrahim-60-1;60.015;1.0.0.561;1;m;-1503739768;2.0.10.356;2.0.10.242;11-16-2023;16/11/2023 14:57;15:57:33;2.0.10.147;0;;-999999;9;41292;0;1;1510;42802;1;1;1;2;1;0;1;BlockProcFischi;BlockList;1;175;0;;-999999;5;44559;0;1;467;45026;1;1;1;1;ProcFischi1;ListBlockFischi;16;1;2;0;1;5;Pr8_B;225;1;op;5;2;5;1;16;1;0;TrialProc;1120;732;Pr8_B;293;2058;1765;ListFischi1;0;;1;205;154220;23;15;2085;156305;725;1;2085;1;759;239;1360;1;1
TMS_Ibrahim;60;1;"<?xml version=""1.0""?>\n<Clock xmlns:dt=""urn:schemas-microsoft-com:datatypes""><Description dt:dt=""string"">E-Prime Primary Realtime Clock</Description><StartTime><Timestamp dt:dt=""int"">0</Timestamp><DateUtc dt:dt=""string"">2023-11-16T14:57:32Z</DateUtc></StartTime><FrequencyChanges><FrequencyChange><Frequency dt:dt=""r8"">3221757</Frequency><Timestamp dt:dt=""r8"">15675494927</Timestamp><Current dt:dt=""r8"">0</Current><DateUtc dt:dt=""string"">2023-11-16T14:57:32Z</DateUtc></FrequencyChange></FrequencyChanges></Clock>\n";TMS_Ibrahim-60-1;60.015;1.0.0.561;1;m;-1503739768;2.0.10.356;2.0.10.242;11-16-2023;16/11/2023 14:57;15:57:33;2.0.10.147;0;;-999999;9;41292;0;1;1510;42802;1;1;1;2;1;0;1;BlockProcFischi;BlockList;1;175;0;;-999999;5;44559;0;1;467;45026;1;1;1;1;ProcFischi1;ListBlockFischi;17;1;2;0;2;5;Pr2_B;225;1;op;5;2;11;1;17;1;0;TrialProc;1127;720;Pr2_B;178;1432;1253;ListFischi1;0;;0;204;161082;9;15;1479;162561;679;1;1479;1;475;461;800;1;1
TMS_Ibrahim;60;1;"<?xml version=""1.0""?>\n<Clock xmlns:dt=""urn:schemas-microsoft-com:datatypes""><Description dt:dt=""string"">E-Prime Primary Realtime Clock</Description><StartTime><Timestamp dt:dt=""int"">0</Timestamp><DateUtc dt:dt=""string"">2023-11-16T14:57:32Z</DateUtc></StartTime><FrequencyChanges><FrequencyChange><Frequency dt:dt=""r8"">3221757</Frequency><Timestamp dt:dt=""r8"">15675494927</Timestamp><Current dt:dt=""r8"">0</Current><DateUtc dt:dt=""string"">2023-11-16T14:57:32Z</DateUtc></FrequencyChange></FrequencyChanges></Clock>\n";TMS_Ibrahim-60-1;60.015;1.0.0.561;1;m;-1503739768;2.0.10.356;2.0.10.242;11-16-2023;16/11/2023 14:57;15:57:33;2.0.10.147;0;;-999999;9;41292;0;1;1510;42802;1;1;1;2;1;0;1;BlockProcFischi;BlockList;1;175;0;;-999999;5;44559;0;1;467;45026;1;1;1;1;ProcFischi1;ListBlockFischi;18;1;2;0;0;3;Pr5_B;225;3;ug;3;2;20;1;18;3;1;TrialProc;1160;683;Pr5_B;193;1477;1283;ListFischi1;0;;0;203;168215;7;13;1497;169712;554;1;1497;1;534;472;943;1;1
TMS_Ibrahim;60;1;"<?xml version=""1.0""?>\n<Clock xmlns:dt=""urn:schemas-microsoft-com:datatypes""><Description dt:dt=""string"">E-Prime Primary Realtime Clock</Description><StartTime><Timestamp dt:dt=""int"">0</Timestamp><DateUtc dt:dt=""string"">2023-11-16T14:57:32Z</DateUtc></StartTime><FrequencyChanges><FrequencyChange><Frequency dt:dt=""r8"">3221757</Frequency><Timestamp dt:dt=""r8"">15675494927</Timestamp><Current dt:dt=""r8"">0</Current><DateUtc dt:dt=""string"">2023-11-16T14:57:32Z</DateUtc></FrequencyChange></FrequencyChanges></Clock>\n";TMS_Ibrahim-60-1;60.015;1.0.0.561;1;m;-1503739768;2.0.10.356;2.0.10.242;11-16-2023;16/11/2023 14:57;15:57:33;2.0.10.147;0;;-999999;9;41292;0;1;1510;42802;1;1;1;2;1;0;1;BlockProcFischi;BlockList;1;175;0;;-999999;5;44559;0;1;467;45026;1;1;1;1;ProcFischi1;ListBlockFischi;19;1;1;0;0;3;Po2_B;175;2;op;3;2;38;1;19;2;0;TrialProc;1261;1593;Po2_B;27;1854;1826;ListFischi1;0;;1;204;175036;18;13;1877;176913;709;1;1877;1;281;537;1168;1;1
TMS_Ibrahim;60;1;"<?xml version=""1.0""?>\n<Clock xmlns:dt=""urn:schemas-microsoft-com:datatypes""><Description dt:dt=""string"">E-Prime Primary Realtime Clock</Description><StartTime><Timestamp dt:dt=""int"">0</Timestamp><DateUtc dt:dt=""string"">2023-11-16T14:57:32Z</DateUtc></StartTime><FrequencyChanges><FrequencyChange><Frequency dt:dt=""r8"">3221757</Frequency><Timestamp dt:dt=""r8"">15675494927</Timestamp><Current dt:dt=""r8"">0</Current><DateUtc dt:dt=""string"">2023-11-16T14:57:32Z</DateUtc></FrequencyChange></FrequencyChanges></Clock>\n";TMS_Ibrahim-60-1;60.015;1.0.0.561;1;m;-1503739768;2.0.10.356;2.0.10.242;11-16-2023;16/11/2023 14:57;15:57:33;2.0.10.147;0;;-999999;9;41292;0;1;1510;42802;1;1;1;2;1;0;1;BlockProcFischi;BlockList;1;175;0;;-999999;5;44559;0;1;467;45026;1;1;1;1;ProcFischi1;ListBlockFischi;20;1;1;0;0;3;Po8_B;150;2;op;3;2;42;1;20;2;0;TrialProc;2565;1255;Po8_B;198;1786;1588;ListFischi1;0;;0;205;182242;10;13;1807;184049;719;1;1807;1;340;521;1088;1;1
TMS_Ibrahim;60;1;"<?xml version=""1.0""?>\n<Clock xmlns:dt=""urn:schemas-microsoft-com:datatypes""><Description dt:dt=""string"">E-Prime Primary Realtime Clock</Description><StartTime><Timestamp dt:dt=""int"">0</Timestamp><DateUtc dt:dt=""string"">2023-11-16T14:57:32Z</DateUtc></StartTime><FrequencyChanges><FrequencyChange><Frequency dt:dt=""r8"">3221757</Frequency><Timestamp dt:dt=""r8"">15675494927</Timestamp><Current dt:dt=""r8"">0</Current><DateUtc dt:dt=""string"">2023-11-16T14:57:32Z</DateUtc></FrequencyChange></FrequencyChanges></Clock>\n";TMS_Ibrahim-60-1;60.015;1.0.0.561;1;m;-1503739768;2.0.10.356;2.0.10.242;11-16-2023;16/11/2023 14:57;15:57:33;2.0.10.147;0;;-999999;9;41292;0;1;1510;42802;1;1;1;2;1;0;1;BlockProcFischi;BlockList;1;175;0;;-999999;5;44559;0;1;467;45026;1;1;1;1;ProcFischi1;ListBlockFischi;21;1;2;0;0;3;Pr3_B;200;3;ug;3;2;28;1;21;3;1;TrialProc;1842;728;Pr3_B;110;1618;1729;ListFischi1;0;;0;204;189081;20;13;1640;190721;552;1;1640;1;294;528;1088;1;1
TMS_Ibrahim;60;1;"<?xml version=""1.0""?>\n<Clock xmlns:dt=""urn:schemas-microsoft-com:datatypes""><Description dt:dt=""string"">E-Prime Primary Realtime Clock</Description><StartTime><Timestamp dt:dt=""int"">0</Timestamp><DateUtc dt:dt=""string"">2023-11-16T14:57:32Z</DateUtc></StartTime><FrequencyChanges><FrequencyChange><Frequency dt:dt=""r8"">3221757</Frequency><Timestamp dt:dt=""r8"">15675494927</Timestamp><Current dt:dt=""r8"">0</Current><DateUtc dt:dt=""string"">2023-11-16T14:57:32Z</DateUtc></FrequencyChange></FrequencyChanges></Clock>\n";TMS_Ibrahim-60-1;60.015;1.0.0.561;1;m;-1503739768;2.0.10.356;2.0.10.242;11-16-2023;16/11/2023 14:57;15:57:33;2.0.10.147;0;;-999999;9;41292;0;1;1510;42802;1;1;1;2;1;0;1;BlockProcFischi;BlockList;1;175;0;;-999999;5;44559;0;1;467;45026;1;1;1;1;ProcFischi1;ListBlockFischi;22;1;2;0;0;3;Pr4_B;175;3;ug;3;2;29;1;22;3;1;TrialProc;2209;693;Pr4_B;201;1462;1261;ListFischi1;0;;1;212;196281;18;13;1496;197777;536;1;1496;1;827;500;960;1;1
TMS_Ibrahim;60;1;"<?xml version=""1.0""?>\n<Clock xmlns:dt=""urn:schemas-microsoft-com:datatypes""><Description dt:dt=""string"">E-Prime Primary Realtime Clock</Description><StartTime><Timestamp dt:dt=""int"">0</Timestamp><DateUtc dt:dt=""string"">2023-11-16T14:57:32Z</DateUtc></StartTime><FrequencyChanges><FrequencyChange><Frequency dt:dt=""r8"">3221757</Frequency><Timestamp dt:dt=""r8"">15675494927</Timestamp><Current dt:dt=""r8"">0</Current><DateUtc dt:dt=""string"">2023-11-16T14:57:32Z</DateUtc></FrequencyChange></FrequencyChanges></Clock>\n";TMS_Ibrahim-60-1;60.015;1.0.0.561;1;m;-1503739768;2.0.10.356;2.0.10.242;11-16-2023;16/11/2023 14:57;15:57:33;2.0.10.147;0;;-999999;9;41292;0;1;1510;42802;1;1;1;2;1;0;1;BlockProcFischi;BlockList;1;175;0;;-999999;5;44559;0;1;467;45026;1;1;1;1;ProcFischi1;ListBlockFischi;23;1;1;0;0;5;Po2_B;175;4;ug;5;2;59;1;23;4;1;TrialProc;2158;1586;Po2_B;56;1762;1819;ListFischi1;0;;1;204;203420;10;155;2181;205601;469;1;1780;1;257;247;1311;1;1
TMS_Ibrahim;60;1;"<?xml version=""1.0""?>\n<Clock xmlns:dt=""urn:schemas-microsoft-com:datatypes""><Description dt:dt=""string"">E-Prime Primary Realtime Clock</Description><StartTime><Timestamp dt:dt=""int"">0</Timestamp><DateUtc dt:dt=""string"">2023-11-16T14:57:32Z</DateUtc></StartTime><FrequencyChanges><FrequencyChange><Frequency dt:dt=""r8"">3221757</Frequency><Timestamp dt:dt=""r8"">15675494927</Timestamp><Current dt:dt=""r8"">0</Current><DateUtc dt:dt=""string"">2023-11-16T14:57:32Z</DateUtc></FrequencyChange></FrequencyChanges></Clock>\n";TMS_Ibrahim-60-1;60.015;1.0.0.561;1;m;-1503739768;2.0.10.356;2.0.10.242;11-16-2023;16/11/2023 14:57;15:57:33;2.0.10.147;0;;-999999;9;41292;0;1;1510;42802;1;1;1;2;1;0;1;BlockProcFischi;BlockList;1;175;0;;-999999;5;44559;0;1;467;45026;1;1;1;1;ProcFischi1;ListBlockFischi;24;1;2;0;0;5;Pr5_B;200;1;op;5;2;9;1;24;1;0;TrialProc;1667;694;Pr5_B;481;1774;1293;ListFischi1;0;;0;204;210212;17;15;1805;212017;429;1;1805;1;711;570;1376;1;1
TMS_Ibrahim;60;1;"<?xml version=""1.0""?>\n<Clock xmlns:dt=""urn:schemas-microsoft-com:datatypes""><Description dt:dt=""string"">E-Prime Primary Realtime Clock</Description><StartTime><Timestamp dt:dt=""int"">0</Timestamp><DateUtc dt:dt=""string"">2023-11-16T14:57:32Z</DateUtc></StartTime><FrequencyChanges><FrequencyChange><Frequency dt:dt=""r8"">3221757</Frequency><Timestamp dt:dt=""r8"">15675494927</Timestamp><Current dt:dt=""r8"">0</Current><DateUtc dt:dt=""string"">2023-11-16T14:57:32Z</DateUtc></FrequencyChange></FrequencyChanges></Clock>\n";TMS_Ibrahim-60-1;60.015;1.0.0.561;1;m;-1503739768;2.0.10.356;2.0.10.242;11-16-2023;16/11/2023 14:57;15:57:33;2.0.10.147;0;;-999999;9;41292;0;1;1510;42802;1;1;1;2;1;0;1;BlockProcFischi;BlockList;1;175;0;;-999999;5;44559;0;1;467;45026;1;1;1;1;ProcFischi1;ListBlockFischi;25;1;1;0;1;3;Po5_B;150;2;op;3;2;41;1;25;2;0;TrialProc;994;989;Po5_B;17;1505;1489;ListFischi1;0;;0;211;217064;13;13;1529;218593;520;1;1529;1;334;529;1009;1;1
TMS_Ibrahim;60;1;"<?xml version=""1.0""?>\n<Clock xmlns:dt=""urn:schemas-microsoft-com:datatypes""><Description dt:dt=""string"">E-Prime Primary Realtime Clock</Description><StartTime><Timestamp dt:dt=""int"">0</Timestamp><DateUtc dt:dt=""string"">2023-11-16T14:57:32Z</DateUtc></StartTime><FrequencyChanges><FrequencyChange><Frequency dt:dt=""r8"">3221757</Frequency><Timestamp dt:dt=""r8"">15675494927</Timestamp><Current dt:dt=""r8"">0</Current><DateUtc dt:dt=""string"">2023-11-16T14:57:32Z</DateUtc></FrequencyChange></FrequencyChanges></Clock>\n";TMS_Ibrahim-60-1;60.015;1.0.0.561;1;m;-1503739768;2.0.10.356;2.0.10.242;11-16-2023;16/11/2023 14:57;15:57:33;2.0.10.147;0;;-999999;9;41292;0;1;1510;42802;1;1;1;2;1;0;1;BlockProcFischi;BlockList;1;175;0;;-999999;5;44559;0;1;467;45026;1;1;1;1;ProcFischi1;ListBlockFischi;26;0;2;1;1;3;Prmod_B;;3;ug;5;2;32;1;26;3;1;TrialProc;2353;1327;Prmod_B;43;1618;1661;ListFischi1;0;;0;207;224091;18;153;2037;226128;453;1;1637;1;160;201;1184;1;0
TMS_Ibrahim;60;1;"<?xml version=""1.0""?>\n<Clock xmlns:dt=""urn:schemas-microsoft-com:datatypes""><Description dt:dt=""string"">E-Prime Primary Realtime Clock</Description><StartTime><Timestamp dt:dt=""int"">0</Timestamp><DateUtc dt:dt=""string"">2023-11-16T14:57:32Z</DateUtc></StartTime><FrequencyChanges><FrequencyChange><Frequency dt:dt=""r8"">3221757</Frequency><Timestamp dt:dt=""r8"">15675494927</Timestamp><Current dt:dt=""r8"">0</Current><DateUtc dt:dt=""string"">2023-11-16T14:57:32Z</DateUtc></FrequencyChange></FrequencyChanges></Clock>\n";TMS_Ibrahim-60-1;60.015;1.0.0.561;1;m;-1503739768;2.0.10.356;2.0.10.242;11-16-2023;16/11/2023 14:57;15:57:33;2.0.10.147;0;;-999999;9;41292;0;1;1510;42802;1;1;1;2;1;0;1;BlockProcFischi;BlockList;1;175;0;;-999999;5;44559;0;1;467;45026;1;1;1;1;ProcFischi1;ListBlockFischi;27;1;2;0;1;3;Pr2_B;175;3;ug;3;2;22;1;27;3;1;TrialProc;1220;726;Pr2_B;230;1490;1259;ListFischi1;0;;1;203;231241;16;13;1511;232752;727;1;1511;1;596;389;784;1;1
TMS_Ibrahim;60;1;"<?xml version=""1.0""?>\n<Clock xmlns:dt=""urn:schemas-microsoft-com:datatypes""><Description dt:dt=""string"">E-Prime Primary Realtime Clock</Description><StartTime><Timestamp dt:dt=""int"">0</Timestamp><DateUtc dt:dt=""string"">2023-11-16T14:57:32Z</DateUtc></StartTime><FrequencyChanges><FrequencyChange><Frequency dt:dt=""r8"">3221757</Frequency><Timestamp dt:dt=""r8"">15675494927</Timestamp><Current dt:dt=""r8"">0</Current><DateUtc dt:dt=""string"">2023-11-16T14:57:32Z</DateUtc></FrequencyChange></FrequencyChanges></Clock>\n";TMS_Ibrahim-60-1;60.015;1.0.0.561;1;m;-1503739768;2.0.10.356;2.0.10.242;11-16-2023;16/11/2023 14:57;15:57:33;2.0.10.147;0;;-999999;9;41292;0;1;1510;42802;1;1;1;2;1;0;1;BlockProcFischi;BlockList;1;175;0;;-999999;5;44559;0;1;467;45026;1;1;1;1;ProcFischi1;ListBlockFischi;28;1;2;0;2;3;Pr2_B;175;3;ug;3;2;27;1;28;3;1;TrialProc;1051;730;Pr2_B;336;1600;1264;ListFischi1;0;;0;207;238018;20;13;1630;239648;590;1;1630;1;678;494;1040;1;1
TMS_Ibrahim;60;1;"<?xml version=""1.0""?>\n<Clock xmlns:dt=""urn:schemas-microsoft-com:datatypes""><Description dt:dt=""string"">E-Prime Primary Realtime Clock</Description><StartTime><Timestamp dt:dt=""int"">0</Timestamp><DateUtc dt:dt=""string"">2023-11-16T14:57:32Z</DateUtc></StartTime><FrequencyChanges><FrequencyChange><Frequency dt:dt=""r8"">3221757</Frequency><Timestamp dt:dt=""r8"">15675494927</Timestamp><Current dt:dt=""r8"">0</Current><DateUtc dt:dt=""string"">2023-11-16T14:57:32Z</DateUtc></FrequencyChange></FrequencyChanges></Clock>\n";TMS_Ibrahim-60-1;60.015;1.0.0.561;1;m;-1503739768;2.0.10.356;2.0.10.242;11-16-2023;16/11/2023 14:57;15:57:33;2.0.10.147;0;;-999999;9;41292;0;1;1510;42802;1;1;1;2;1;0;1;BlockProcFischi;BlockList;1;175;0;;-999999;5;44559;0;1;467;45026;1;1;1;1;ProcFischi1;ListBlockFischi;29;1;2;0;0;3;Pr5_B;200;3;ug;3;2;30;1;29;3;1;TrialProc;1151;696;Pr5_B;318;1614;1296;ListFischi1;0;;0;209;245134;19;13;1634;246768;434;1;1634;1;666;357;1200;1;1
TMS_Ibrahim;60;1;"<?xml version=""1.0""?>\n<Clock xmlns:dt=""urn:schemas-microsoft-com:datatypes""><Description dt:dt=""string"">E-Prime Primary Realtime Clock</Description><StartTime><Timestamp dt:dt=""int"">0</Timestamp><DateUtc dt:dt=""string"">2023-11-16T14:57:32Z</DateUtc></StartTime><FrequencyChanges><FrequencyChange><Frequency dt:dt=""r8"">3221757</Frequency><Timestamp dt:dt=""r8"">15675494927</Timestamp><Current dt:dt=""r8"">0</Current><DateUtc dt:dt=""string"">2023-11-16T14:57:32Z</DateUtc></FrequencyChange></FrequencyChanges></Clock>\n";TMS_Ibrahim-60-1;60.015;1.0.0.561;1;m;-1503739768;2.0.10.356;2.0.10.242;11-16-2023;16/11/2023 14:57;15:57:33;2.0.10.147;0;;-999999;9;41292;0;1;1510;42802;1;1;1;2;1;0;1;BlockProcFischi;BlockList;1;175;0;;-999999;5;44559;0;1;467;45026;1;1;1;1;ProcFischi1;ListBlockFischi;30;1;2;1;1;3;Prmod_B;200;3;ug;3;2;31;1;30;3;1;TrialProc;808;1331;Prmod_B;141;1806;1665;ListFischi1;0;;0;204;252214;21;13;1834;254048;666;1;1834;1;450;311;1168;1;1
TMS_Ibrahim;60;1;"<?xml version=""1.0""?>\n<Clock xmlns:dt=""urn:schemas-microsoft-com:datatypes""><Description dt:dt=""string"">E-Prime Primary Realtime Clock</Description><StartTime><Timestamp dt:dt=""int"">0</Timestamp><DateUtc dt:dt=""string"">2023-11-16T14:57:32Z</DateUtc></StartTime><FrequencyChanges><FrequencyChange><Frequency dt:dt=""r8"">3221757</Frequency><Timestamp dt:dt=""r8"">15675494927</Timestamp><Current dt:dt=""r8"">0</Current><DateUtc dt:dt=""string"">2023-11-16T14:57:32Z</DateUtc></FrequencyChange></FrequencyChanges></Clock>\n";TMS_Ibrahim-60-1;60.015;1.0.0.561;1;m;-1503739768;2.0.10.356;2.0.10.242;11-16-2023;16/11/2023 14:57;15:57:33;2.0.10.147;0;;-999999;9;41292;0;1;1510;42802;1;1;1;2;1;0;1;BlockProcFischi;BlockList;1;175;0;;-999999;5;44559;0;1;467;45026;1;1;1;1;ProcFischi1;ListBlockFischi;31;1;1;0;0;5;Po2_B;150;4;ug;5;2;49;1;31;4;1;TrialProc;1441;1590;Po2_B;152;1975;1823;ListFischi1;0;;0;204;259103;14;15;2001;261104;625;1;2001;1;393;288;1376;1;1
TMS_Ibrahim;60;1;"<?xml version=""1.0""?>\n<Clock xmlns:dt=""urn:schemas-microsoft-com:datatypes""><Description dt:dt=""string"">E-Prime Primary Realtime Clock</Description><StartTime><Timestamp dt:dt=""int"">0</Timestamp><DateUtc dt:dt=""string"">2023-11-16T14:57:32Z</DateUtc></StartTime><FrequencyChanges><FrequencyChange><Frequency dt:dt=""r8"">3221757</Frequency><Timestamp dt:dt=""r8"">15675494927</Timestamp><Current dt:dt=""r8"">0</Current><DateUtc dt:dt=""string"">2023-11-16T14:57:32Z</DateUtc></FrequencyChange></FrequencyChanges></Clock>\n";TMS_Ibrahim-60-1;60.015;1.0.0.561;1;m;-1503739768;2.0.10.356;2.0.10.242;11-16-2023;16/11/2023 14:57;15:57:33;2.0.10.147;0;;-999999;9;41292;0;1;1510;42802;1;1;1;2;1;0;1;BlockProcFischi;BlockList;1;175;0;;-999999;5;44559;0;1;467;45026;1;1;1;1;ProcFischi1;ListBlockFischi;32;1;2;1;1;5;Prmod_B;200;1;op;5;2;16;1;32;1;0;TrialProc;1656;1324;Prmod_B;142;1801;1658;ListFischi1;0;;1;210;266283;15;15;1829;268112;485;1;1829;1;458;580;1344;1;1
TMS_Ibrahim;60;1;"<?xml version=""1.0""?>\n<Clock xmlns:dt=""urn:schemas-microsoft-com:datatypes""><Description dt:dt=""string"">E-Prime Primary Realtime Clock</Description><StartTime><Timestamp dt:dt=""int"">0</Timestamp><DateUtc dt:dt=""string"">2023-11-16T14:57:32Z</DateUtc></StartTime><FrequencyChanges><FrequencyChange><Frequency dt:dt=""r8"">3221757</Frequency><Timestamp dt:dt=""r8"">15675494927</Timestamp><Current dt:dt=""r8"">0</Current><DateUtc dt:dt=""string"">2023-11-16T14:57:32Z</DateUtc></FrequencyChange></FrequencyChanges></Clock>\n";TMS_Ibrahim-60-1;60.015;1.0.0.561;1;m;-1503739768;2.0.10.356;2.0.10.242;11-16-2023;16/11/2023 14:57;15:57:33;2.0.10.147;0;;-999999;9;41292;0;1;1510;42802;1;1;1;2;1;0;1;BlockProcFischi;BlockList;1;175;0;;-999999;5;44559;0;1;467;45026;1;1;1;1;ProcFischi1;ListBlockFischi;33;1;1;0;0;5;Po4_B;150;4;ug;5;2;56;1;33;4;1;TrialProc;1223;1358;Po4_B;168;1891;1724;ListFischi1;0;;1;203;273298;15;15;1918;275216;862;1;1918;1;441;310;1056;1;1
TMS_Ibrahim;60;1;"<?xml version=""1.0""?>\n<Clock xmlns:dt=""urn:schemas-microsoft-com:datatypes""><Description dt:dt=""string"">E-Prime Primary Realtime Clock</Description><StartTime><Timestamp dt:dt=""int"">0</Timestamp><DateUtc dt:dt=""string"">2023-11-16T14:57:32Z</DateUtc></StartTime><FrequencyChanges><FrequencyChange><Frequency dt:dt=""r8"">3221757</Frequency><Timestamp dt:dt=""r8"">15675494927</Timestamp><Current dt:dt=""r8"">0</Current><DateUtc dt:dt=""string"">2023-11-16T14:57:32Z</DateUtc></FrequencyChange></FrequencyChanges></Clock>\n";TMS_Ibrahim-60-1;60.015;1.0.0.561;1;m;-1503739768;2.0.10.356;2.0.10.242;11-16-2023;16/11/2023 14:57;15:57:33;2.0.10.147;0;;-999999;9;41292;0;1;1510;42802;1;1;1;2;1;0;1;BlockProcFischi;BlockList;1;175;0;;-999999;5;44559;0;1;467;45026;1;1;1;1;ProcFischi1;ListBlockFischi;34;1;2;0;0;3;Pr3_B;175;3;ug;3;2;18;1;34;3;1;TrialProc;1215;720;Pr3_B;111;1830;1720;ListFischi1;0;;0;204;280584;11;13;1864;282448;648;1;1864;1;407;422;1216;1;1
TMS_Ibrahim;60;1;"<?xml version=""1.0""?>\n<Clock xmlns:dt=""urn:schemas-microsoft-com:datatypes""><Description dt:dt=""string"">E-Prime Primary Realtime Clock</Description><StartTime><Timestamp dt:dt=""int"">0</Timestamp><DateUtc dt:dt=""string"">2023-11-16T14:57:32Z</DateUtc></StartTime><FrequencyChanges><FrequencyChange><Frequency dt:dt=""r8"">3221757</Frequency><Timestamp dt:dt=""r8"">15675494927</Timestamp><Current dt:dt=""r8"">0</Current><DateUtc dt:dt=""string"">2023-11-16T14:57:32Z</DateUtc></FrequencyChange></FrequencyChanges></Clock>\n";TMS_Ibrahim-60-1;60.015;1.0.0.561;1;m;-1503739768;2.0.10.356;2.0.10.242;11-16-2023;16/11/2023 14:57;15:57:33;2.0.10.147;0;;-999999;9;41292;0;1;1510;42802;1;1;1;2;1;0;1;BlockProcFischi;BlockList;1;175;0;;-999999;5;44559;0;1;467;45026;1;1;1;1;ProcFischi1;ListBlockFischi;35;1;2;0;0;3;Pr3_B;150;3;ug;3;2;23;1;35;3;1;TrialProc;1176;741;Pr3_B;296;2038;1741;ListFischi1;0;;0;212;287646;30;13;2066;289712;850;1;2066;1;534;537;1216;1;1
TMS_Ibrahim;60;1;"<?xml version=""1.0""?>\n<Clock xmlns:dt=""urn:schemas-microsoft-com:datatypes""><Description dt:dt=""string"">E-Prime Primary Realtime Clock</Description><StartTime><Timestamp dt:dt=""int"">0</Timestamp><DateUtc dt:dt=""string"">2023-11-16T14:57:32Z</DateUtc></StartTime><FrequencyChanges><FrequencyChange><Frequency dt:dt=""r8"">3221757</Frequency><Timestamp dt:dt=""r8"">15675494927</Timestamp><Current dt:dt=""r8"">0</Current><DateUtc dt:dt=""string"">2023-11-16T14:57:32Z</DateUtc></FrequencyChange></FrequencyChanges></Clock>\n";TMS_Ibrahim-60-1;60.015;1.0.0.561;1;m;-1503739768;2.0.10.356;2.0.10.242;11-16-2023;16/11/2023 14:57;15:57:33;2.0.10.147;0;;-999999;9;41292;0;1;1510;42802;1;1;1;2;1;0;1;BlockProcFischi;BlockList;1;175;0;;-999999;5;44559;0;1;467;45026;1;1;1;1;ProcFischi1;ListBlockFischi;36;1;1;0;0;5;Po3_B;150;4;ug;5;2;55;1;36;4;1;TrialProc;1021;1320;Po3_B;103;1689;1587;ListFischi1;0;;0;210;294514;10;155;2110;296624;414;1;1710;1;339;205;1296;1;1
TMS_Ibrahim;60;1;"<?xml version=""1.0""?>\n<Clock xmlns:dt=""urn:schemas-microsoft-com:datatypes""><Description dt:dt=""string"">E-Prime Primary Realtime Clock</Description><StartTime><Timestamp dt:dt=""int"">0</Timestamp><DateUtc dt:dt=""string"">2023-11-16T14:57:32Z</DateUtc></StartTime><FrequencyChanges><FrequencyChange><Frequency dt:dt=""r8"">3221757</Frequency><Timestamp dt:dt=""r8"">15675494927</Timestamp><Current dt:dt=""r8"">0</Current><DateUtc dt:dt=""string"">2023-11-16T14:57:32Z</DateUtc></FrequencyChange></FrequencyChanges></Clock>\n";TMS_Ibrahim-60-1;60.015;1.0.0.561;1;m;-1503739768;2.0.10.356;2.0.10.242;11-16-2023;16/11/2023 14:57;15:57:33;2.0.10.147;0;;-999999;9;41292;0;1;1510;42802;1;1;1;2;1;0;1;BlockProcFischi;BlockList;1;175;0;;-999999;5;44559;0;1;467;45026;1;1;1;1;ProcFischi1;ListBlockFischi;37;1;2;0;1;3;Pr8_B;150;3;ug;3;2;21;1;37;3;1;TrialProc;1046;723;Pr8_B;184;1939;1756;ListFischi1;0;;0;210;301360;13;13;1968;303328;656;1;1968;1;532;354;1312;1;1
TMS_Ibrahim;60;1;"<?xml version=""1.0""?>\n<Clock xmlns:dt=""urn:schemas-microsoft-com:datatypes""><Description dt:dt=""string"">E-Prime Primary Realtime Clock</Description><StartTime><Timestamp dt:dt=""int"">0</Timestamp><DateUtc dt:dt=""string"">2023-11-16T14:57:32Z</DateUtc></StartTime><FrequencyChanges><FrequencyChange><Frequency dt:dt=""r8"">3221757</Frequency><Timestamp dt:dt=""r8"">15675494927</Timestamp><Current dt:dt=""r8"">0</Current><DateUtc dt:dt=""string"">2023-11-16T14:57:32Z</DateUtc></FrequencyChange></FrequencyChanges></Clock>\n";TMS_Ibrahim-60-1;60.015;1.0.0.561;1;m;-1503739768;2.0.10.356;2.0.10.242;11-16-2023;16/11/2023 14:57;15:57:33;2.0.10.147;0;;-999999;9;41292;0;1;1510;42802;1;1;1;2;1;0;1;BlockProcFischi;BlockList;1;175;0;;-999999;5;44559;0;1;467;45026;1;1;1;1;ProcFischi1;ListBlockFischi;38;1;1;0;0;3;Po4_B;125;2;op;3;2;35;1;38;2;0;TrialProc;1100;1363;Po4_B;73;1804;1730;ListFischi1;0;;0;205;308583;21;13;1833;310416;681;1;1833;1;422;321;1152;1;1
TMS_Ibrahim;60;1;"<?xml version=""1.0""?>\n<Clock xmlns:dt=""urn:schemas-microsoft-com:datatypes""><Description dt:dt=""string"">E-Prime Primary Realtime Clock</Description><StartTime><Timestamp dt:dt=""int"">0</Timestamp><DateUtc dt:dt=""string"">2023-11-16T14:57:32Z</DateUtc></StartTime><FrequencyChanges><FrequencyChange><Frequency dt:dt=""r8"">3221757</Frequency><Timestamp dt:dt=""r8"">15675494927</Timestamp><Current dt:dt=""r8"">0</Current><DateUtc dt:dt=""string"">2023-11-16T14:57:32Z</DateUtc></FrequencyChange></FrequencyChanges></Clock>\n";TMS_Ibrahim-60-1;60.015;1.0.0.561;1;m;-1503739768;2.0.10.356;2.0.10.242;11-16-2023;16/11/2023 14:57;15:57:33;2.0.10.147;0;;-999999;9;41292;0;1;1510;42802;1;1;1;2;1;0;1;BlockProcFischi;BlockList;1;175;0;;-999999;5;44559;0;1;467;45026;1;1;1;1;ProcFischi1;ListBlockFischi;39;1;1;0;0;3;Po2_B;100;2;op;3;2;33;1;39;2;0;TrialProc;1731;1589;Po2_B;32;1789;1821;ListFischi1;0;;1;206;315773;13;13;1810;317583;307;1;1810;1;403;517;1503;1;1
TMS_Ibrahim;60;1;"<?xml version=""1.0""?>\n<Clock xmlns:dt=""urn:schemas-microsoft-com:datatypes""><Description dt:dt=""string"">E-Prime Primary Realtime Clock</Description><StartTime><Timestamp dt:dt=""int"">0</Timestamp><DateUtc dt:dt=""string"">2023-11-16T14:57:32Z</DateUtc></StartTime><FrequencyChanges><FrequencyChange><Frequency dt:dt=""r8"">3221757</Frequency><Timestamp dt:dt=""r8"">15675494927</Timestamp><Current dt:dt=""r8"">0</Current><DateUtc dt:dt=""string"">2023-11-16T14:57:32Z</DateUtc></FrequencyChange></FrequencyChanges></Clock>\n";TMS_Ibrahim-60-1;60.015;1.0.0.561;1;m;-1503739768;2.0.10.356;2.0.10.242;11-16-2023;16/11/2023 14:57;15:57:33;2.0.10.147;0;;-999999;9;41292;0;1;1510;42802;1;1;1;2;1;0;1;BlockProcFischi;BlockList;1;175;0;;-999999;5;44559;0;1;467;45026;1;1;1;1;ProcFischi1;ListBlockFischi;40;1;2;0;0;5;Pr4_B;175;1;op;5;2;13;1;40;1;0;TrialProc;913;692;Pr4_B;308;1567;1259;ListFischi1;0;;0;203;323136;15;15;1599;324735;511;1;1599;1;701;497;1088;1;1
TMS_Ibrahim;60;1;"<?xml version=""1.0""?>\n<Clock xmlns:dt=""urn:schemas-microsoft-com:datatypes""><Description dt:dt=""string"">E-Prime Primary Realtime Clock</Description><StartTime><Timestamp dt:dt=""int"">0</Timestamp><DateUtc dt:dt=""string"">2023-11-16T14:57:32Z</DateUtc></StartTime><FrequencyChanges><FrequencyChange><Frequency dt:dt=""r8"">3221757</Frequency><Timestamp dt:dt=""r8"">15675494927</Timestamp><Current dt:dt=""r8"">0</Current><DateUtc dt:dt=""string"">2023-11-16T14:57:32Z</DateUtc></FrequencyChange></FrequencyChanges></Clock>\n";TMS_Ibrahim-60-1;60.015;1.0.0.561;1;m;-1503739768;2.0.10.356;2.0.10.242;11-16-2023;16/11/2023 14:57;15:57:33;2.0.10.147;0;;-999999;9;41292;0;1;1510;42802;1;1;1;2;1;0;1;BlockProcFischi;BlockList;1;175;0;;-999999;5;44559;0;1;467;45026;1;1;1;1;ProcFischi1;ListBlockFischi;41;1;1;1;0;5;Pomod_B;125;4;ug;5;2;64;1;41;4;1;TrialProc;1353;1332;Pomod_B;733;2431;1698;ListFischi1;0;;1;209;330110;22;15;2465;332575;689;1;2465;1;1310;363;1776;1;1
TMS_Ibrahim;60;1;"<?xml version=""1.0""?>\n<Clock xmlns:dt=""urn:schemas-microsoft-com:datatypes""><Description dt:dt=""string"">E-Prime Primary Realtime Clock</Description><StartTime><Timestamp dt:dt=""int"">0</Timestamp><DateUtc dt:dt=""string"">2023-11-16T14:57:32Z</DateUtc></StartTime><FrequencyChanges><FrequencyChange><Frequency dt:dt=""r8"">3221757</Frequency><Timestamp dt:dt=""r8"">15675494927</Timestamp><Current dt:dt=""r8"">0</Current><DateUtc dt:dt=""string"">2023-11-16T14:57:32Z</DateUtc></FrequencyChange></FrequencyChanges></Clock>\n";TMS_Ibrahim-60-1;60.015;1.0.0.561;1;m;-1503739768;2.0.10.356;2.0.10.242;11-16-2023;16/11/2023 14:57;15:57:33;2.0.10.147;0;;-999999;9;41292;0;1;1510;42802;1;1;1;2;1;0;1;BlockProcFischi;BlockList;1;175;0;;-999999;5;44559;0;1;467;45026;1;1;1;1;ProcFischi1;ListBlockFischi;42;1;2;0;1;5;Pr5_B;175;1;op;5;2;14;1;42;1;0;TrialProc;1255;686;Pr5_B;443;1730;1286;ListFischi1;0;;1;203;336822;9;15;1753;338575;633;1;1753;1;715;492;1120;1;1
TMS_Ibrahim;60;1;"<?xml version=""1.0""?>\n<Clock xmlns:dt=""urn:schemas-microsoft-com:datatypes""><Description dt:dt=""string"">E-Prime Primary Realtime Clock</Description><StartTime><Timestamp dt:dt=""int"">0</Timestamp><DateUtc dt:dt=""string"">2023-11-16T14:57:32Z</DateUtc></StartTime><FrequencyChanges><FrequencyChange><Frequency dt:dt=""r8"">3221757</Frequency><Timestamp dt:dt=""r8"">15675494927</Timestamp><Current dt:dt=""r8"">0</Current><DateUtc dt:dt=""string"">2023-11-16T14:57:32Z</DateUtc></FrequencyChange></FrequencyChanges></Clock>\n";TMS_Ibrahim-60-1;60.015;1.0.0.561;1;m;-1503739768;2.0.10.356;2.0.10.242;11-16-2023;16/11/2023 14:57;15:57:33;2.0.10.147;0;;-999999;9;41292;0;1;1510;42802;1;1;1;2;1;0;1;BlockProcFischi;BlockList;1;175;0;;-999999;5;44559;0;1;467;45026;1;1;1;1;ProcFischi1;ListBlockFischi;43;1;2;0;2;5;Pr2_B;175;1;op;5;2;6;1;43;1;0;TrialProc;1199;729;Pr2_B;353;1615;1263;ListFischi1;0;;1;206;343775;21;15;1648;345423;592;1;1648;1;632;538;1056;1;1
TMS_Ibrahim;60;1;"<?xml version=""1.0""?>\n<Clock xmlns:dt=""urn:schemas-microsoft-com:datatypes""><Description dt:dt=""string"">E-Prime Primary Realtime Clock</Description><StartTime><Timestamp dt:dt=""int"">0</Timestamp><DateUtc dt:dt=""string"">2023-11-16T14:57:32Z</DateUtc></StartTime><FrequencyChanges><FrequencyChange><Frequency dt:dt=""r8"">3221757</Frequency><Timestamp dt:dt=""r8"">15675494927</Timestamp><Current dt:dt=""r8"">0</Current><DateUtc dt:dt=""string"">2023-11-16T14:57:32Z</DateUtc></FrequencyChange></FrequencyChanges></Clock>\n";TMS_Ibrahim-60-1;60.015;1.0.0.561;1;m;-1503739768;2.0.10.356;2.0.10.242;11-16-2023;16/11/2023 14:57;15:57:33;2.0.10.147;0;;-999999;9;41292;0;1;1510;42802;1;1;1;2;1;0;1;BlockProcFischi;BlockList;1;175;0;;-999999;5;44559;0;1;467;45026;1;1;1;1;ProcFischi1;ListBlockFischi;44;1;1;0;1;5;Po8_B;125;4;ug;5;2;53;1;44;4;1;TrialProc;1414;1253;Po8_B;140;1727;1587;ListFischi1;0;;0;211;350817;10;15;1758;352575;478;1;1758;1;307;219;1280;1;1
TMS_Ibrahim;60;1;"<?xml version=""1.0""?>\n<Clock xmlns:dt=""urn:schemas-microsoft-com:datatypes""><Description dt:dt=""string"">E-Prime Primary Realtime Clock</Description><StartTime><Timestamp dt:dt=""int"">0</Timestamp><DateUtc dt:dt=""string"">2023-11-16T14:57:32Z</DateUtc></StartTime><FrequencyChanges><FrequencyChange><Frequency dt:dt=""r8"">3221757</Frequency><Timestamp dt:dt=""r8"">15675494927</Timestamp><Current dt:dt=""r8"">0</Current><DateUtc dt:dt=""string"">2023-11-16T14:57:32Z</DateUtc></FrequencyChange></FrequencyChanges></Clock>\n";TMS_Ibrahim-60-1;60.015;1.0.0.561;1;m;-1503739768;2.0.10.356;2.0.10.242;11-16-2023;16/11/2023 14:57;15:57:33;2.0.10.147;0;;-999999;9;41292;0;1;1510;42802;1;1;1;2;1;0;1;BlockProcFischi;BlockList;1;175;0;;-999999;5;44559;0;1;467;45026;1;1;1;1;ProcFischi1;ListBlockFischi;45;1;1;0;0;3;Po3_B;75;2;op;3;2;39;1;45;2;0;TrialProc;1111;1324;Po3_B;48;1639;1591;ListFischi1;0;;1;203;357894;15;13;1657;359551;489;1;1657;1;449;588;1168;1;1
TMS_Ibrahim;60;1;"<?xml version=""1.0""?>\n<Clock xmlns:dt=""urn:schemas-microsoft-com:datatypes""><Description dt:dt=""string"">E-Prime Primary Realtime Clock</Description><StartTime><Timestamp dt:dt=""int"">0</Timestamp><DateUtc dt:dt=""string"">2023-11-16T14:57:32Z</DateUtc></StartTime><FrequencyChanges><FrequencyChange><Frequency dt:dt=""r8"">3221757</Frequency><Timestamp dt:dt=""r8"">15675494927</Timestamp><Current dt:dt=""r8"">0</Current><DateUtc dt:dt=""string"">2023-11-16T14:57:32Z</DateUtc></FrequencyChange></FrequencyChanges></Clock>\n";TMS_Ibrahim-60-1;60.015;1.0.0.561;1;m;-1503739768;2.0.10.356;2.0.10.242;11-16-2023;16/11/2023 14:57;15:57:33;2.0.10.147;0;;-999999;9;41292;0;1;1510;42802;1;1;1;2;1;0;1;BlockProcFischi;BlockList;1;175;0;;-999999;5;44559;0;1;467;45026;1;1;1;1;ProcFischi1;ListBlockFischi;46;1;1;0;1;5;Po3_B;125;4;ug;5;2;60;1;46;4;1;TrialProc;1056;1321;Po3_B;136;1723;1587;ListFischi1;0;;0;211;364896;11;15;1743;366639;623;1;1743;1;483;276;1120;1;1
TMS_Ibrahim;60;1;"<?xml version=""1.0""?>\n<Clock xmlns:dt=""urn:schemas-microsoft-com:datatypes""><Description dt:dt=""string"">E-Prime Primary Realtime Clock</Description><StartTime><Timestamp dt:dt=""int"">0</Timestamp><DateUtc dt:dt=""string"">2023-11-16T14:57:32Z</DateUtc></StartTime><FrequencyChanges><FrequencyChange><Frequency dt:dt=""r8"">3221757</Frequency><Timestamp dt:dt=""r8"">15675494927</Timestamp><Current dt:dt=""r8"">0</Current><DateUtc dt:dt=""string"">2023-11-16T14:57:32Z</DateUtc></FrequencyChange></FrequencyChanges></Clock>\n";TMS_Ibrahim-60-1;60.015;1.0.0.561;1;m;-1503739768;2.0.10.356;2.0.10.242;11-16-2023;16/11/2023 14:57;15:57:33;2.0.10.147;0;;-999999;9;41292;0;1;1510;42802;1;1;1;2;1;0;1;BlockProcFischi;BlockList;1;175;0;;-999999;5;44559;0;1;467;45026;1;1;1;1;ProcFischi1;ListBlockFischi;47;1;1;1;1;5;Pomod_B;125;4;ug;5;2;63;1;47;4;1;TrialProc;2265;1325;Pomod_B;134;1827;1693;ListFischi1;0;;0;205;372106;16;15;1845;373951;533;1;1845;1;384;554;1312;1;1
TMS_Ibrahim;60;1;"<?xml version=""1.0""?>\n<Clock xmlns:dt=""urn:schemas-microsoft-com:datatypes""><Description dt:dt=""string"">E-Prime Primary Realtime Clock</Description><StartTime><Timestamp dt:dt=""int"">0</Timestamp><DateUtc dt:dt=""string"">2023-11-16T14:57:32Z</DateUtc></StartTime><FrequencyChanges><FrequencyChange><Frequency dt:dt=""r8"">3221757</Frequency><Timestamp dt:dt=""r8"">15675494927</Timestamp><Current dt:dt=""r8"">0</Current><DateUtc dt:dt=""string"">2023-11-16T14:57:32Z</DateUtc></FrequencyChange></FrequencyChanges></Clock>\n";TMS_Ibrahim-60-1;60.015;1.0.0.561;1;m;-1503739768;2.0.10.356;2.0.10.242;11-16-2023;16/11/2023 14:57;15:57:33;2.0.10.147;0;;-999999;9;41292;0;1;1510;42802;1;1;1;2;1;0;1;BlockProcFischi;BlockList;1;175;0;;-999999;5;44559;0;1;467;45026;1;1;1;1;ProcFischi1;ListBlockFischi;48;1;2;0;2;3;Pr2_B;150;3;ug;3;2;17;1;48;3;1;TrialProc;2128;734;Pr2_B;204;1471;1267;ListFischi1;0;;0;211;379364;23;13;1499;380863;571;1;1499;1;617;265;928;1;1
TMS_Ibrahim;60;1;"<?xml version=""1.0""?>\n<Clock xmlns:dt=""urn:schemas-microsoft-com:datatypes""><Description dt:dt=""string"">E-Prime Primary Realtime Clock</Description><StartTime><Timestamp dt:dt=""int"">0</Timestamp><DateUtc dt:dt=""string"">2023-11-16T14:57:32Z</DateUtc></StartTime><FrequencyChanges><FrequencyChange><Frequency dt:dt=""r8"">3221757</Frequency><Timestamp dt:dt=""r8"">15675494927</Timestamp><Current dt:dt=""r8"">0</Current><DateUtc dt:dt=""string"">2023-11-16T14:57:32Z</DateUtc></FrequencyChange></FrequencyChanges></Clock>\n";TMS_Ibrahim-60-1;60.015;1.0.0.561;1;m;-1503739768;2.0.10.356;2.0.10.242;11-16-2023;16/11/2023 14:57;15:57:33;2.0.10.147;0;;-999999;9;41292;0;1;1510;42802;1;1;1;2;1;0;1;BlockProcFischi;BlockList;1;175;0;;-999999;5;44559;0;1;467;45026;1;1;1;1;ProcFischi1;ListBlockFischi;49;1;1;0;0;3;Po5_B;50;2;op;3;2;36;1;49;2;0;TrialProc;1200;985;Po5_B;134;1618;1484;ListFischi1;0;;0;204;386493;9;13;1650;388143;466;1;1650;1;509;421;1184;1;1
TMS_Ibrahim;60;1;"<?xml version=""1.0""?>\n<Clock xmlns:dt=""urn:schemas-microsoft-com:datatypes""><Description dt:dt=""string"">E-Prime Primary Realtime Clock</Description><StartTime><Timestamp dt:dt=""int"">0</Timestamp><DateUtc dt:dt=""string"">2023-11-16T14:57:32Z</DateUtc></StartTime><FrequencyChanges><FrequencyChange><Frequency dt:dt=""r8"">3221757</Frequency><Timestamp dt:dt=""r8"">15675494927</Timestamp><Current dt:dt=""r8"">0</Current><DateUtc dt:dt=""string"">2023-11-16T14:57:32Z</DateUtc></FrequencyChange></FrequencyChanges></Clock>\n";TMS_Ibrahim-60-1;60.015;1.0.0.561;1;m;-1503739768;2.0.10.356;2.0.10.242;11-16-2023;16/11/2023 14:57;15:57:33;2.0.10.147;0;;-999999;9;41292;0;1;1510;42802;1;1;1;2;1;0;1;BlockProcFischi;BlockList;1;175;0;;-999999;5;44559;0;1;467;45026;1;1;1;1;ProcFischi1;ListBlockFischi;50;1;1;0;1;5;Po4_B;125;4;ug;5;2;51;1;50;4;1;TrialProc;1298;1359;Po4_B;44;1771;1726;ListFischi1;0;;1;203;393550;17;15;1793;395343;625;1;1793;1;418;484;1168;1;1
TMS_Ibrahim;60;1;"<?xml version=""1.0""?>\n<Clock xmlns:dt=""urn:schemas-microsoft-com:datatypes""><Description dt:dt=""string"">E-Prime Primary Realtime Clock</Description><StartTime><Timestamp dt:dt=""int"">0</Timestamp><DateUtc dt:dt=""string"">2023-11-16T14:57:32Z</DateUtc></StartTime><FrequencyChanges><FrequencyChange><Frequency dt:dt=""r8"">3221757</Frequency><Timestamp dt:dt=""r8"">15675494927</Timestamp><Current dt:dt=""r8"">0</Current><DateUtc dt:dt=""string"">2023-11-16T14:57:32Z</DateUtc></FrequencyChange></FrequencyChanges></Clock>\n";TMS_Ibrahim-60-1;60.015;1.0.0.561;1;m;-1503739768;2.0.10.356;2.0.10.242;11-16-2023;16/11/2023 14:57;15:57:33;2.0.10.147;0;;-999999;9;41292;0;1;1510;42802;1;1;1;2;1;0;1;BlockProcFischi;BlockList;1;175;0;;-999999;5;44559;0;1;467;45026;1;1;1;1;ProcFischi1;ListBlockFischi;51;1;2;0;0;5;Pr3_B;200;1;op;5;2;7;1;51;1;0;TrialProc;1278;733;Pr3_B;72;1805;1732;ListFischi1;0;;0;205;400843;22;15;1828;402671;659;1;1828;1;448;217;1169;1;1
TMS_Ibrahim;60;1;"<?xml version=""1.0""?>\n<Clock xmlns:dt=""urn:schemas-microsoft-com:datatypes""><Description dt:dt=""string"">E-Prime Primary Realtime Clock</Description><StartTime><Timestamp dt:dt=""int"">0</Timestamp><DateUtc dt:dt=""string"">2023-11-16T14:57:32Z</DateUtc></StartTime><FrequencyChanges><FrequencyChange><Frequency dt:dt=""r8"">3221757</Frequency><Timestamp dt:dt=""r8"">15675494927</Timestamp><Current dt:dt=""r8"">0</Current><DateUtc dt:dt=""string"">2023-11-16T14:57:32Z</DateUtc></FrequencyChange></FrequencyChanges></Clock>\n";TMS_Ibrahim-60-1;60.015;1.0.0.561;1;m;-1503739768;2.0.10.356;2.0.10.242;11-16-2023;16/11/2023 14:57;15:57:33;2.0.10.147;0;;-999999;9;41292;0;1;1510;42802;1;1;1;2;1;0;1;BlockProcFischi;BlockList;1;175;0;;-999999;5;44559;0;1;467;45026;1;1;1;1;ProcFischi1;ListBlockFischi;52;1;2;0;0;3;Pr4_B;175;3;ug;3;2;24;1;52;3;1;TrialProc;1076;690;Pr4_B;273;1531;1257;ListFischi1;0;;1;206;408265;15;13;1558;409823;646;1;1558;1;804;435;912;1;1
TMS_Ibrahim;60;1;"<?xml version=""1.0""?>\n<Clock xmlns:dt=""urn:schemas-microsoft-com:datatypes""><Description dt:dt=""string"">E-Prime Primary Realtime Clock</Description><StartTime><Timestamp dt:dt=""int"">0</Timestamp><DateUtc dt:dt=""string"">2023-11-16T14:57:32Z</DateUtc></StartTime><FrequencyChanges><FrequencyChange><Frequency dt:dt=""r8"">3221757</Frequency><Timestamp dt:dt=""r8"">15675494927</Timestamp><Current dt:dt=""r8"">0</Current><DateUtc dt:dt=""string"">2023-11-16T14:57:32Z</DateUtc></FrequencyChange></FrequencyChanges></Clock>\n";TMS_Ibrahim-60-1;60.015;1.0.0.561;1;m;-1503739768;2.0.10.356;2.0.10.242;11-16-2023;16/11/2023 14:57;15:57:33;2.0.10.147;0;;-999999;9;41292;0;1;1510;42802;1;1;1;2;1;0;1;BlockProcFischi;BlockList;1;175;0;;-999999;5;44559;0;1;467;45026;1;1;1;1;ProcFischi1;ListBlockFischi;53;1;1;0;1;3;Po4_B;50;2;op;3;2;40;1;53;2;0;TrialProc;1213;1353;Po4_B;88;1632;1720;ListFischi1;0;;1;203;415268;10;13;1659;416927;587;1;1659;1;306;285;1072;1;1
TMS_Ibrahim;60;1;"<?xml version=""1.0""?>\n<Clock xmlns:dt=""urn:schemas-microsoft-com:datatypes""><Description dt:dt=""string"">E-Prime Primary Realtime Clock</Description><StartTime><Timestamp dt:dt=""int"">0</Timestamp><DateUtc dt:dt=""string"">2023-11-16T14:57:32Z</DateUtc></StartTime><FrequencyChanges><FrequencyChange><Frequency dt:dt=""r8"">3221757</Frequency><Timestamp dt:dt=""r8"">15675494927</Timestamp><Current dt:dt=""r8"">0</Current><DateUtc dt:dt=""string"">2023-11-16T14:57:32Z</DateUtc></FrequencyChange></FrequencyChanges></Clock>\n";TMS_Ibrahim-60-1;60.015;1.0.0.561;1;m;-1503739768;2.0.10.356;2.0.10.242;11-16-2023;16/11/2023 14:57;15:57:33;2.0.10.147;0;;-999999;9;41292;0;1;1510;42802;1;1;1;2;1;0;1;BlockProcFischi;BlockList;1;175;0;;-999999;5;44559;0;1;467;45026;1;1;1;1;ProcFischi1;ListBlockFischi;54;1;1;0;2;3;Po4_B;50;2;op;3;2;45;1;54;2;0;TrialProc;1465;1357;Po4_B;108;1617;1724;ListFischi1;0;;0;204;422762;14;13;1636;424398;564;1;1636;1;360;505;1072;1;1
TMS_Ibrahim;60;1;"<?xml version=""1.0""?>\n<Clock xmlns:dt=""urn:schemas-microsoft-com:datatypes""><Description dt:dt=""string"">E-Prime Primary Realtime Clock</Description><StartTime><Timestamp dt:dt=""int"">0</Timestamp><DateUtc dt:dt=""string"">2023-11-16T14:57:32Z</DateUtc></StartTime><FrequencyChanges><FrequencyChange><Frequency dt:dt=""r8"">3221757</Frequency><Timestamp dt:dt=""r8"">15675494927</Timestamp><Current dt:dt=""r8"">0</Current><DateUtc dt:dt=""string"">2023-11-16T14:57:32Z</DateUtc></FrequencyChange></FrequencyChanges></Clock>\n";TMS_Ibrahim-60-1;60.015;1.0.0.561;1;m;-1503739768;2.0.10.356;2.0.10.242;11-16-2023;16/11/2023 14:57;15:57:33;2.0.10.147;0;;-999999;9;41292;0;1;1510;42802;1;1;1;2;1;0;1;BlockProcFischi;BlockList;1;175;0;;-999999;5;44559;0;1;467;45026;1;1;1;1;ProcFischi1;ListBlockFischi;55;1;2;0;0;5;Pr5_B;175;1;op;5;2;4;1;55;1;0;TrialProc;1334;696;Pr5_B;215;1510;1295;ListFischi1;0;;1;212;430189;19;15;1537;431726;497;1;1537;1;474;367;1040;1;1
TMS_Ibrahim;60;1;"<?xml version=""1.0""?>\n<Clock xmlns:dt=""urn:schemas-microsoft-com:datatypes""><Description dt:dt=""string"">E-Prime Primary Realtime Clock</Description><StartTime><Timestamp dt:dt=""int"">0</Timestamp><DateUtc dt:dt=""string"">2023-11-16T14:57:32Z</DateUtc></StartTime><FrequencyChanges><FrequencyChange><Frequency dt:dt=""r8"">3221757</Frequency><Timestamp dt:dt=""r8"">15675494927</Timestamp><Current dt:dt=""r8"">0</Current><DateUtc dt:dt=""string"">2023-11-16T14:57:32Z</DateUtc></FrequencyChange></FrequencyChanges></Clock>\n";TMS_Ibrahim-60-1;60.015;1.0.0.561;1;m;-1503739768;2.0.10.356;2.0.10.242;11-16-2023;16/11/2023 14:57;15:57:33;2.0.10.147;0;;-999999;9;41292;0;1;1510;42802;1;1;1;2;1;0;1;BlockProcFischi;BlockList;1;175;0;;-999999;5;44559;0;1;467;45026;1;1;1;1;ProcFischi1;ListBlockFischi;56;1;2;1;1;5;Prmod_B;175;1;op;5;2;15;1;56;1;0;TrialProc;1978;1327;Prmod_B;30;1691;1660;ListFischi1;0;;0;205;437306;16;15;1716;439022;483;1;1716;1;552;507;1233;1;1
TMS_Ibrahim;60;1;"<?xml version=""1.0""?>\n<Clock xmlns:dt=""urn:schemas-microsoft-com:datatypes""><Description dt:dt=""string"">E-Prime Primary Realtime Clock</Description><StartTime><Timestamp dt:dt=""int"">0</Timestamp><DateUtc dt:dt=""string"">2023-11-16T14:57:32Z</DateUtc></StartTime><FrequencyChanges><FrequencyChange><Frequency dt:dt=""r8"">3221757</Frequency><Timestamp dt:dt=""r8"">15675494927</Timestamp><Current dt:dt=""r8"">0</Current><DateUtc dt:dt=""string"">2023-11-16T14:57:32Z</DateUtc></FrequencyChange></FrequencyChanges></Clock>\n";TMS_Ibrahim-60-1;60.015;1.0.0.561;1;m;-1503739768;2.0.10.356;2.0.10.242;11-16-2023;16/11/2023 14:57;15:57:33;2.0.10.147;0;;-999999;9;41292;0;1;1510;42802;1;1;1;2;1;0;1;BlockProcFischi;BlockList;1;175;0;;-999999;5;44559;0;1;467;45026;1;1;1;1;ProcFischi1;ListBlockFischi;57;1;2;0;0;5;Pr4_B;150;1;op;5;2;8;1;57;1;0;TrialProc;1084;688;Pr4_B;377;1629;1253;ListFischi1;0;;1;207;444609;12;15;1661;446270;573;1;1661;1;1246;562;1088;1;1
TMS_Ibrahim;60;1;"<?xml version=""1.0""?>\n<Clock xmlns:dt=""urn:schemas-microsoft-com:datatypes""><Description dt:dt=""string"">E-Prime Primary Realtime Clock</Description><StartTime><Timestamp dt:dt=""int"">0</Timestamp><DateUtc dt:dt=""string"">2023-11-16T14:57:32Z</DateUtc></StartTime><FrequencyChanges><FrequencyChange><Frequency dt:dt=""r8"">3221757</Frequency><Timestamp dt:dt=""r8"">15675494927</Timestamp><Current dt:dt=""r8"">0</Current><DateUtc dt:dt=""string"">2023-11-16T14:57:32Z</DateUtc></FrequencyChange></FrequencyChanges></Clock>\n";TMS_Ibrahim-60-1;60.015;1.0.0.561;1;m;-1503739768;2.0.10.356;2.0.10.242;11-16-2023;16/11/2023 14:57;15:57:33;2.0.10.147;0;;-999999;9;41292;0;1;1510;42802;1;1;1;2;1;0;1;BlockProcFischi;BlockList;1;175;0;;-999999;5;44559;0;1;467;45026;1;1;1;1;ProcFischi1;ListBlockFischi;58;1;1;0;0;3;Po5_B;75;2;op;3;2;46;1;58;2;0;TrialProc;1961;988;Po5_B;210;1700;1489;ListFischi1;0;;0;211;452490;12;13;1732;454222;532;1;1732;1;443;240;1200;1;1
TMS_Ibrahim;60;1;"<?xml version=""1.0""?>\n<Clock xmlns:dt=""urn:schemas-microsoft-com:datatypes""><Description dt:dt=""string"">E-Prime Primary Realtime Clock</Description><StartTime><Timestamp dt:dt=""int"">0</Timestamp><DateUtc dt:dt=""string"">2023-11-16T14:57:32Z</DateUtc></StartTime><FrequencyChanges><FrequencyChange><Frequency dt:dt=""r8"">3221757</Frequency><Timestamp dt:dt=""r8"">15675494927</Timestamp><Current dt:dt=""r8"">0</Current><DateUtc dt:dt=""string"">2023-11-16T14:57:32Z</DateUtc></FrequencyChange></FrequencyChanges></Clock>\n";TMS_Ibrahim-60-1;60.015;1.0.0.561;1;m;-1503739768;2.0.10.356;2.0.10.242;11-16-2023;16/11/2023 14:57;15:57:33;2.0.10.147;0;;-999999;9;41292;0;1;1510;42802;1;1;1;2;1;0;1;BlockProcFischi;BlockList;1;175;0;;-999999;5;44559;0;1;467;45026;1;1;1;1;ProcFischi1;ListBlockFischi;59;1;2;0;1;5;Pr2_B;150;1;op;5;2;1;1;59;1;0;TrialProc;1648;726;Pr2_B;405;1663;1259;ListFischi1;0;;0;205;459968;15;15;1694;461662;558;1;1694;1;659;384;1136;1;1
TMS_Ibrahim;60;1;"<?xml version=""1.0""?>\n<Clock xmlns:dt=""urn:schemas-microsoft-com:datatypes""><Description dt:dt=""string"">E-Prime Primary Realtime Clock</Description><StartTime><Timestamp dt:dt=""int"">0</Timestamp><DateUtc dt:dt=""string"">2023-11-16T14:57:32Z</DateUtc></StartTime><FrequencyChanges><FrequencyChange><Frequency dt:dt=""r8"">3221757</Frequency><Timestamp dt:dt=""r8"">15675494927</Timestamp><Current dt:dt=""r8"">0</Current><DateUtc dt:dt=""string"">2023-11-16T14:57:32Z</DateUtc></FrequencyChange></FrequencyChanges></Clock>\n";TMS_Ibrahim-60-1;60.015;1.0.0.561;1;m;-1503739768;2.0.10.356;2.0.10.242;11-16-2023;16/11/2023 14:57;15:57:33;2.0.10.147;0;;-999999;9;41292;0;1;1510;42802;1;1;1;2;1;0;1;BlockProcFischi;BlockList;1;175;0;;-999999;5;44559;0;1;467;45026;1;1;1;1;ProcFischi1;ListBlockFischi;60;1;1;0;0;5;Po8_B;100;4;ug;5;2;58;1;60;4;1;TrialProc;1358;1254;Po8_B;188;1776;1587;ListFischi1;0;;1;210;466804;11;15;1802;468606;602;1;1802;1;598;358;1200;1;1
TMS_Ibrahim;60;1;"<?xml version=""1.0""?>\n<Clock xmlns:dt=""urn:schemas-microsoft-com:datatypes""><Description dt:dt=""string"">E-Prime Primary Realtime Clock</Description><StartTime><Timestamp dt:dt=""int"">0</Timestamp><DateUtc dt:dt=""string"">2023-11-16T14:57:32Z</DateUtc></StartTime><FrequencyChanges><FrequencyChange><Frequency dt:dt=""r8"">3221757</Frequency><Timestamp dt:dt=""r8"">15675494927</Timestamp><Current dt:dt=""r8"">0</Current><DateUtc dt:dt=""string"">2023-11-16T14:57:32Z</DateUtc></FrequencyChange></FrequencyChanges></Clock>\n";TMS_Ibrahim-60-1;60.015;1.0.0.561;1;m;-1503739768;2.0.10.356;2.0.10.242;11-16-2023;16/11/2023 14:57;15:57:33;2.0.10.147;0;;-999999;9;41292;0;1;1510;42802;1;1;1;2;1;0;1;BlockProcFischi;BlockList;1;175;0;;-999999;5;44559;0;1;467;45026;1;1;1;1;ProcFischi1;ListBlockFischi;61;1;1;1;1;3;Pomod_B;75;2;op;3;2;48;1;61;2;0;TrialProc;979;1322;Pomod_B;192;1881;1688;ListFischi1;0;;1;205;473701;12;13;1913;475614;313;1;1913;1;520;450;1600;1;1
TMS_Ibrahim;60;1;"<?xml version=""1.0""?>\n<Clock xmlns:dt=""urn:schemas-microsoft-com:datatypes""><Description dt:dt=""string"">E-Prime Primary Realtime Clock</Description><StartTime><Timestamp dt:dt=""int"">0</Timestamp><DateUtc dt:dt=""string"">2023-11-16T14:57:32Z</DateUtc></StartTime><FrequencyChanges><FrequencyChange><Frequency dt:dt=""r8"">3221757</Frequency><Timestamp dt:dt=""r8"">15675494927</Timestamp><Current dt:dt=""r8"">0</Current><DateUtc dt:dt=""string"">2023-11-16T14:57:32Z</DateUtc></FrequencyChange></FrequencyChanges></Clock>\n";TMS_Ibrahim-60-1;60.015;1.0.0.561;1;m;-1503739768;2.0.10.356;2.0.10.242;11-16-2023;16/11/2023 14:57;15:57:33;2.0.10.147;0;;-999999;9;41292;0;1;1510;42802;1;1;1;2;1;0;1;BlockProcFischi;BlockList;1;175;0;;-999999;5;44559;0;1;467;45026;1;1;1;1;ProcFischi1;ListBlockFischi;62;1;2;0;2;5;Pr3_B;150;1;op;5;2;12;1;62;1;0;TrialProc;1317;727;Pr3_B;207;1933;1725;ListFischi1;0;;0;206;481095;17;15;1959;483054;519;1;1959;1;472;275;1440;1;1
TMS_Ibrahim;60;1;"<?xml version=""1.0""?>\n<Clock xmlns:dt=""urn:schemas-microsoft-com:datatypes""><Description dt:dt=""string"">E-Prime Primary Realtime Clock</Description><StartTime><Timestamp dt:dt=""int"">0</Timestamp><DateUtc dt:dt=""string"">2023-11-16T14:57:32Z</DateUtc></StartTime><FrequencyChanges><FrequencyChange><Frequency dt:dt=""r8"">3221757</Frequency><Timestamp dt:dt=""r8"">15675494927</Timestamp><Current dt:dt=""r8"">0</Current><DateUtc dt:dt=""string"">2023-11-16T14:57:32Z</DateUtc></FrequencyChange></FrequencyChanges></Clock>\n";TMS_Ibrahim-60-1;60.015;1.0.0.561;1;m;-1503739768;2.0.10.356;2.0.10.242;11-16-2023;16/11/2023 14:57;15:57:33;2.0.10.147;0;;-999999;9;41292;0;1;1510;42802;1;1;1;2;1;0;1;BlockProcFischi;BlockList;1;175;0;;-999999;5;44559;0;1;467;45026;1;1;1;1;ProcFischi1;ListBlockFischi;63;1;1;0;1;5;Po5_B;100;4;ug;5;2;62;1;63;4;1;TrialProc;933;987;Po5_B;88;1573;1486;ListFischi1;0;;0;205;487951;9;15;1599;489550;543;1;1599;1;489;249;1056;1;1
TMS_Ibrahim;60;1;"<?xml version=""1.0""?>\n<Clock xmlns:dt=""urn:schemas-microsoft-com:datatypes""><Description dt:dt=""string"">E-Prime Primary Realtime Clock</Description><StartTime><Timestamp dt:dt=""int"">0</Timestamp><DateUtc dt:dt=""string"">2023-11-16T14:57:32Z</DateUtc></StartTime><FrequencyChanges><FrequencyChange><Frequency dt:dt=""r8"">3221757</Frequency><Timestamp dt:dt=""r8"">15675494927</Timestamp><Current dt:dt=""r8"">0</Current><DateUtc dt:dt=""string"">2023-11-16T14:57:32Z</DateUtc></FrequencyChange></FrequencyChanges></Clock>\n";TMS_Ibrahim-60-1;60.015;1.0.0.561;1;m;-1503739768;2.0.10.356;2.0.10.242;11-16-2023;16/11/2023 14:57;15:57:33;2.0.10.147;0;;-999999;9;41292;0;1;1510;42802;1;1;1;2;1;0;1;BlockProcFischi;BlockList;1;175;0;;-999999;5;44559;0;1;467;45026;1;1;1;1;ProcFischi1;ListBlockFischi;64;1;1;0;1;5;Po2_B;100;4;ug;5;2;54;1;64;4;1;TrialProc;1030;1586;Po2_B;69;1751;1820;ListFischi1;0;;0;205;495216;9;15;1774;496990;558;1;1774;1;315;212;1216;1;1
TMS_Ibrahim;60;3;"<?xml version=""1.0""?>\n<Clock xmlns:dt=""urn:schemas-microsoft-com:datatypes""><Description dt:dt=""string"">E-Prime Primary Realtime Clock</Description><StartTime><Timestamp dt:dt=""int"">0</Timestamp><DateUtc dt:dt=""string"">2023-11-16T15:59:42Z</DateUtc></StartTime><FrequencyChanges><FrequencyChange><Frequency dt:dt=""r8"">3221757</Frequency><Timestamp dt:dt=""r8"">27692556517</Timestamp><Current dt:dt=""r8"">0</Current><DateUtc dt:dt=""string"">2023-11-16T15:59:42Z</DateUtc></FrequencyChange></FrequencyChanges></Clock>\n";TMS_Ibrahim-60-3;60.015;1.0.0.561;1;v;1923385786;2.0.10.356;2.0.10.242;11-16-2023;16/11/2023 15:59;16:59:43;2.0.10.147;0;;-999999;10;28457;0;1;1782;30239;1;1;1;2;1;2;1;BlockProcFischi;BlockList;1;225;0;;-999999;6;32124;0;1;1442;33566;1;1;1;1;ProcFischi1;ListBlockFischi;1;1;1;0;0;3;Po5_B;250;2;op;3;2;41;1;1;2;0;TrialProc;1148;993;Po5_B;73;1584;1510;ListFischi1;0;;0;212;35185;18;13;1605;36790;773;1;1605;1;1021;518;832;1;1
TMS_Ibrahim;60;3;"<?xml version=""1.0""?>\n<Clock xmlns:dt=""urn:schemas-microsoft-com:datatypes""><Description dt:dt=""string"">E-Prime Primary Realtime Clock</Description><StartTime><Timestamp dt:dt=""int"">0</Timestamp><DateUtc dt:dt=""string"">2023-11-16T15:59:42Z</DateUtc></StartTime><FrequencyChanges><FrequencyChange><Frequency dt:dt=""r8"">3221757</Frequency><Timestamp dt:dt=""r8"">27692556517</Timestamp><Current dt:dt=""r8"">0</Current><DateUtc dt:dt=""string"">2023-11-16T15:59:42Z</DateUtc></FrequencyChange></FrequencyChanges></Clock>\n";TMS_Ibrahim-60-3;60.015;1.0.0.561;1;v;1923385786;2.0.10.356;2.0.10.242;11-16-2023;16/11/2023 15:59;16:59:43;2.0.10.147;0;;-999999;10;28457;0;1;1782;30239;1;1;1;2;1;2;1;BlockProcFischi;BlockList;1;225;0;;-999999;6;32124;0;1;1442;33566;1;1;1;1;ProcFischi1;ListBlockFischi;2;1;2;0;0;3;Pr4_B;250;3;ug;3;2;29;1;2;3;1;TrialProc;1234;709;Pr4_B;282;1558;1275;ListFischi1;0;;0;204;42170;15;13;1580;43750;588;1;1580;1;769;325;992;1;1
TMS_Ibrahim;60;3;"<?xml version=""1.0""?>\n<Clock xmlns:dt=""urn:schemas-microsoft-com:datatypes""><Description dt:dt=""string"">E-Prime Primary Realtime Clock</Description><StartTime><Timestamp dt:dt=""int"">0</Timestamp><DateUtc dt:dt=""string"">2023-11-16T15:59:42Z</DateUtc></StartTime><FrequencyChanges><FrequencyChange><Frequency dt:dt=""r8"">3221757</Frequency><Timestamp dt:dt=""r8"">27692556517</Timestamp><Current dt:dt=""r8"">0</Current><DateUtc dt:dt=""string"">2023-11-16T15:59:42Z</DateUtc></FrequencyChange></FrequencyChanges></Clock>\n";TMS_Ibrahim-60-3;60.015;1.0.0.561;1;v;1923385786;2.0.10.356;2.0.10.242;11-16-2023;16/11/2023 15:59;16:59:43;2.0.10.147;0;;-999999;10;28457;0;1;1782;30239;1;1;1;2;1;2;1;BlockProcFischi;BlockList;1;225;0;;-999999;6;32124;0;1;1442;33566;1;1;1;1;ProcFischi1;ListBlockFischi;3;1;1;0;0;5;Po2_B;250;4;ug;5;2;59;1;3;4;1;TrialProc;1774;1606;Po2_B;29;1810;1839;ListFischi1;0;;0;207;49305;11;15;1837;51142;797;1;1837;1;415;311;1040;1;1
TMS_Ibrahim;60;3;"<?xml version=""1.0""?>\n<Clock xmlns:dt=""urn:schemas-microsoft-com:datatypes""><Description dt:dt=""string"">E-Prime Primary Realtime Clock</Description><StartTime><Timestamp dt:dt=""int"">0</Timestamp><DateUtc dt:dt=""string"">2023-11-16T15:59:42Z</DateUtc></StartTime><FrequencyChanges><FrequencyChange><Frequency dt:dt=""r8"">3221757</Frequency><Timestamp dt:dt=""r8"">27692556517</Timestamp><Current dt:dt=""r8"">0</Current><DateUtc dt:dt=""string"">2023-11-16T15:59:42Z</DateUtc></FrequencyChange></FrequencyChanges></Clock>\n";TMS_Ibrahim-60-3;60.015;1.0.0.561;1;v;1923385786;2.0.10.356;2.0.10.242;11-16-2023;16/11/2023 15:59;16:59:43;2.0.10.147;0;;-999999;10;28457;0;1;1782;30239;1;1;1;2;1;2;1;BlockProcFischi;BlockList;1;225;0;;-999999;6;32124;0;1;1442;33566;1;1;1;1;ProcFischi1;ListBlockFischi;4;1;1;1;0;3;Pomod_B;225;2;op;3;2;48;1;4;2;0;TrialProc;1039;1328;Pomod_B;163;1856;1693;ListFischi1;0;;0;205;56814;17;13;1880;58694;600;1;1880;1;674;464;1280;1;1
TMS_Ibrahim;60;3;"<?xml version=""1.0""?>\n<Clock xmlns:dt=""urn:schemas-microsoft-com:datatypes""><Description dt:dt=""string"">E-Prime Primary Realtime Clock</Description><StartTime><Timestamp dt:dt=""int"">0</Timestamp><DateUtc dt:dt=""string"">2023-11-16T15:59:42Z</DateUtc></StartTime><FrequencyChanges><FrequencyChange><Frequency dt:dt=""r8"">3221757</Frequency><Timestamp dt:dt=""r8"">27692556517</Timestamp><Current dt:dt=""r8"">0</Current><DateUtc dt:dt=""string"">2023-11-16T15:59:42Z</DateUtc></FrequencyChange></FrequencyChanges></Clock>\n";TMS_Ibrahim-60-3;60.015;1.0.0.561;1;v;1923385786;2.0.10.356;2.0.10.242;11-16-2023;16/11/2023 15:59;16:59:43;2.0.10.147;0;;-999999;10;28457;0;1;1782;30239;1;1;1;2;1;2;1;BlockProcFischi;BlockList;1;225;0;;-999999;6;32124;0;1;1442;33566;1;1;1;1;ProcFischi1;ListBlockFischi;5;1;1;0;0;5;Po5_B;225;4;ug;5;2;62;1;5;4;1;TrialProc;1017;992;Po5_B;371;1864;1492;ListFischi1;0;;0;213;64564;15;15;1890;66454;706;1;1890;1;726;595;1184;1;1
TMS_Ibrahim;60;3;"<?xml version=""1.0""?>\n<Clock xmlns:dt=""urn:schemas-microsoft-com:datatypes""><Description dt:dt=""string"">E-Prime Primary Realtime Clock</Description><StartTime><Timestamp dt:dt=""int"">0</Timestamp><DateUtc dt:dt=""string"">2023-11-16T15:59:42Z</DateUtc></StartTime><FrequencyChanges><FrequencyChange><Frequency dt:dt=""r8"">3221757</Frequency><Timestamp dt:dt=""r8"">27692556517</Timestamp><Current dt:dt=""r8"">0</Current><DateUtc dt:dt=""string"">2023-11-16T15:59:42Z</DateUtc></FrequencyChange></FrequencyChanges></Clock>\n";TMS_Ibrahim-60-3;60.015;1.0.0.561;1;v;1923385786;2.0.10.356;2.0.10.242;11-16-2023;16/11/2023 15:59;16:59:43;2.0.10.147;0;;-999999;10;28457;0;1;1782;30239;1;1;1;2;1;2;1;BlockProcFischi;BlockList;1;225;0;;-999999;6;32124;0;1;1442;33566;1;1;1;1;ProcFischi1;ListBlockFischi;6;1;1;0;1;5;Po4_B;225;4;ug;5;2;56;1;6;4;1;TrialProc;969;1390;Po4_B;64;1692;1756;ListFischi1;0;;0;214;71565;29;15;1721;73286;537;1;1721;1;469;366;1184;1;1
TMS_Ibrahim;60;3;"<?xml version=""1.0""?>\n<Clock xmlns:dt=""urn:schemas-microsoft-com:datatypes""><Description dt:dt=""string"">E-Prime Primary Realtime Clock</Description><StartTime><Timestamp dt:dt=""int"">0</Timestamp><DateUtc dt:dt=""string"">2023-11-16T15:59:42Z</DateUtc></StartTime><FrequencyChanges><FrequencyChange><Frequency dt:dt=""r8"">3221757</Frequency><Timestamp dt:dt=""r8"">27692556517</Timestamp><Current dt:dt=""r8"">0</Current><DateUtc dt:dt=""string"">2023-11-16T15:59:42Z</DateUtc></FrequencyChange></FrequencyChanges></Clock>\n";TMS_Ibrahim-60-3;60.015;1.0.0.561;1;v;1923385786;2.0.10.356;2.0.10.242;11-16-2023;16/11/2023 15:59;16:59:43;2.0.10.147;0;;-999999;10;28457;0;1;1782;30239;1;1;1;2;1;2;1;BlockProcFischi;BlockList;1;225;0;;-999999;6;32124;0;1;1442;33566;1;1;1;1;ProcFischi1;ListBlockFischi;7;1;1;0;0;5;Po4_B;200;4;ug;5;2;61;1;7;4;1;TrialProc;1326;1367;Po4_B;64;1799;1734;ListFischi1;0;;1;213;79035;24;15;1818;80853;522;1;1818;1;556;477;1296;1;1
TMS_Ibrahim;60;3;"<?xml version=""1.0""?>\n<Clock xmlns:dt=""urn:schemas-microsoft-com:datatypes""><Description dt:dt=""string"">E-Prime Primary Realtime Clock</Description><StartTime><Timestamp dt:dt=""int"">0</Timestamp><DateUtc dt:dt=""string"">2023-11-16T15:59:42Z</DateUtc></StartTime><FrequencyChanges><FrequencyChange><Frequency dt:dt=""r8"">3221757</Frequency><Timestamp dt:dt=""r8"">27692556517</Timestamp><Current dt:dt=""r8"">0</Current><DateUtc dt:dt=""string"">2023-11-16T15:59:42Z</DateUtc></FrequencyChange></FrequencyChanges></Clock>\n";TMS_Ibrahim-60-3;60.015;1.0.0.561;1;v;1923385786;2.0.10.356;2.0.10.242;11-16-2023;16/11/2023 15:59;16:59:43;2.0.10.147;0;;-999999;10;28457;0;1;1782;30239;1;1;1;2;1;2;1;BlockProcFischi;BlockList;1;225;0;;-999999;6;32124;0;1;1442;33566;1;1;1;1;ProcFischi1;ListBlockFischi;8;1;2;0;1;3;Pr2_B;250;3;ug;3;2;27;1;8;3;1;TrialProc;969;735;Pr2_B;234;1500;1267;ListFischi1;0;;0;214;86400;24;13;1525;87925;453;1;1525;1;610;223;1072;1;1
TMS_Ibrahim;60;3;"<?xml version=""1.0""?>\n<Clock xmlns:dt=""urn:schemas-microsoft-com:datatypes""><Description dt:dt=""string"">E-Prime Primary Realtime Clock</Description><StartTime><Timestamp dt:dt=""int"">0</Timestamp><DateUtc dt:dt=""string"">2023-11-16T15:59:42Z</DateUtc></StartTime><FrequencyChanges><FrequencyChange><Frequency dt:dt=""r8"">3221757</Frequency><Timestamp dt:dt=""r8"">27692556517</Timestamp><Current dt:dt=""r8"">0</Current><DateUtc dt:dt=""string"">2023-11-16T15:59:42Z</DateUtc></FrequencyChange></FrequencyChanges></Clock>\n";TMS_Ibrahim-60-3;60.015;1.0.0.561;1;v;1923385786;2.0.10.356;2.0.10.242;11-16-2023;16/11/2023 15:59;16:59:43;2.0.10.147;0;;-999999;10;28457;0;1;1782;30239;1;1;1;2;1;2;1;BlockProcFischi;BlockList;1;225;0;;-999999;6;32124;0;1;1442;33566;1;1;1;1;ProcFischi1;ListBlockFischi;9;1;1;1;0;5;Pomod_B;175;4;ug;5;2;64;1;9;4;1;TrialProc;1064;1318;Pomod_B;132;1816;1684;ListFischi1;0;;1;204;93398;8;15;1839;95237;431;1;1839;1;659;365;1408;1;1
TMS_Ibrahim;60;3;"<?xml version=""1.0""?>\n<Clock xmlns:dt=""urn:schemas-microsoft-com:datatypes""><Description dt:dt=""string"">E-Prime Primary Realtime Clock</Description><StartTime><Timestamp dt:dt=""int"">0</Timestamp><DateUtc dt:dt=""string"">2023-11-16T15:59:42Z</DateUtc></StartTime><FrequencyChanges><FrequencyChange><Frequency dt:dt=""r8"">3221757</Frequency><Timestamp dt:dt=""r8"">27692556517</Timestamp><Current dt:dt=""r8"">0</Current><DateUtc dt:dt=""string"">2023-11-16T15:59:42Z</DateUtc></FrequencyChange></FrequencyChanges></Clock>\n";TMS_Ibrahim-60-3;60.015;1.0.0.561;1;v;1923385786;2.0.10.356;2.0.10.242;11-16-2023;16/11/2023 15:59;16:59:43;2.0.10.147;0;;-999999;10;28457;0;1;1782;30239;1;1;1;2;1;2;1;BlockProcFischi;BlockList;1;225;0;;-999999;6;32124;0;1;1442;33566;1;1;1;1;ProcFischi1;ListBlockFischi;10;1;1;0;0;3;Po3_B;200;2;op;3;2;39;1;10;2;0;TrialProc;1520;1316;Po3_B;192;1775;1583;ListFischi1;0;;0;203;100514;6;13;1795;102309;499;1;1795;1;684;529;1296;1;1
TMS_Ibrahim;60;3;"<?xml version=""1.0""?>\n<Clock xmlns:dt=""urn:schemas-microsoft-com:datatypes""><Description dt:dt=""string"">E-Prime Primary Realtime Clock</Description><StartTime><Timestamp dt:dt=""int"">0</Timestamp><DateUtc dt:dt=""string"">2023-11-16T15:59:42Z</DateUtc></StartTime><FrequencyChanges><FrequencyChange><Frequency dt:dt=""r8"">3221757</Frequency><Timestamp dt:dt=""r8"">27692556517</Timestamp><Current dt:dt=""r8"">0</Current><DateUtc dt:dt=""string"">2023-11-16T15:59:42Z</DateUtc></FrequencyChange></FrequencyChanges></Clock>\n";TMS_Ibrahim-60-3;60.015;1.0.0.561;1;v;1923385786;2.0.10.356;2.0.10.242;11-16-2023;16/11/2023 15:59;16:59:43;2.0.10.147;0;;-999999;10;28457;0;1;1782;30239;1;1;1;2;1;2;1;BlockProcFischi;BlockList;1;225;0;;-999999;6;32124;0;1;1442;33566;1;1;1;1;ProcFischi1;ListBlockFischi;11;1;2;0;1;3;Pr5_B;250;3;ug;3;2;25;1;11;3;1;TrialProc;1527;687;Pr5_B;423;1711;1288;ListFischi1;0;;0;207;107408;11;13;1733;109141;549;1;1733;1;757;259;1184;1;1
TMS_Ibrahim;60;3;"<?xml version=""1.0""?>\n<Clock xmlns:dt=""urn:schemas-microsoft-com:datatypes""><Description dt:dt=""string"">E-Prime Primary Realtime Clock</Description><StartTime><Timestamp dt:dt=""int"">0</Timestamp><DateUtc dt:dt=""string"">2023-11-16T15:59:42Z</DateUtc></StartTime><FrequencyChanges><FrequencyChange><Frequency dt:dt=""r8"">3221757</Frequency><Timestamp dt:dt=""r8"">27692556517</Timestamp><Current dt:dt=""r8"">0</Current><DateUtc dt:dt=""string"">2023-11-16T15:59:42Z</DateUtc></FrequencyChange></FrequencyChanges></Clock>\n";TMS_Ibrahim-60-3;60.015;1.0.0.561;1;v;1923385786;2.0.10.356;2.0.10.242;11-16-2023;16/11/2023 15:59;16:59:43;2.0.10.147;0;;-999999;10;28457;0;1;1782;30239;1;1;1;2;1;2;1;BlockProcFischi;BlockList;1;225;0;;-999999;6;32124;0;1;1442;33566;1;1;1;1;ProcFischi1;ListBlockFischi;12;1;1;0;0;5;Po5_B;150;4;ug;5;2;57;1;12;4;1;TrialProc;1498;992;Po5_B;92;1584;1492;ListFischi1;0;;0;212;114119;15;15;1614;115733;478;1;1614;1;1018;294;1136;1;1
TMS_Ibrahim;60;3;"<?xml version=""1.0""?>\n<Clock xmlns:dt=""urn:schemas-microsoft-com:datatypes""><Description dt:dt=""string"">E-Prime Primary Realtime Clock</Description><StartTime><Timestamp dt:dt=""int"">0</Timestamp><DateUtc dt:dt=""string"">2023-11-16T15:59:42Z</DateUtc></StartTime><FrequencyChanges><FrequencyChange><Frequency dt:dt=""r8"">3221757</Frequency><Timestamp dt:dt=""r8"">27692556517</Timestamp><Current dt:dt=""r8"">0</Current><DateUtc dt:dt=""string"">2023-11-16T15:59:42Z</DateUtc></FrequencyChange></FrequencyChanges></Clock>\n";TMS_Ibrahim-60-3;60.015;1.0.0.561;1;v;1923385786;2.0.10.356;2.0.10.242;11-16-2023;16/11/2023 15:59;16:59:43;2.0.10.147;0;;-999999;10;28457;0;1;1782;30239;1;1;1;2;1;2;1;BlockProcFischi;BlockList;1;225;0;;-999999;6;32124;0;1;1442;33566;1;1;1;1;ProcFischi1;ListBlockFischi;13;1;1;0;0;3;Po2_B;200;2;op;3;2;33;1;13;2;0;TrialProc;1952;1603;Po2_B;0;1836;1836;ListFischi1;0;;0;212;121390;25;13;1863;123253;279;1;1863;1;484;289;1584;1;1
TMS_Ibrahim;60;3;"<?xml version=""1.0""?>\n<Clock xmlns:dt=""urn:schemas-microsoft-com:datatypes""><Description dt:dt=""string"">E-Prime Primary Realtime Clock</Description><StartTime><Timestamp dt:dt=""int"">0</Timestamp><DateUtc dt:dt=""string"">2023-11-16T15:59:42Z</DateUtc></StartTime><FrequencyChanges><FrequencyChange><Frequency dt:dt=""r8"">3221757</Frequency><Timestamp dt:dt=""r8"">27692556517</Timestamp><Current dt:dt=""r8"">0</Current><DateUtc dt:dt=""string"">2023-11-16T15:59:42Z</DateUtc></FrequencyChange></FrequencyChanges></Clock>\n";TMS_Ibrahim-60-3;60.015;1.0.0.561;1;v;1923385786;2.0.10.356;2.0.10.242;11-16-2023;16/11/2023 15:59;16:59:43;2.0.10.147;0;;-999999;10;28457;0;1;1782;30239;1;1;1;2;1;2;1;BlockProcFischi;BlockList;1;225;0;;-999999;6;32124;0;1;1442;33566;1;1;1;1;ProcFischi1;ListBlockFischi;14;1;1;0;0;3;Po8_B;175;2;op;3;2;42;1;14;2;0;TrialProc;1561;1255;Po8_B;84;1672;1589;ListFischi1;0;;0;207;128634;13;13;1691;130325;491;1;1691;1;493;213;1200;1;1
TMS_Ibrahim;60;3;"<?xml version=""1.0""?>\n<Clock xmlns:dt=""urn:schemas-microsoft-com:datatypes""><Description dt:dt=""string"">E-Prime Primary Realtime Clock</Description><StartTime><Timestamp dt:dt=""int"">0</Timestamp><DateUtc dt:dt=""string"">2023-11-16T15:59:42Z</DateUtc></StartTime><FrequencyChanges><FrequencyChange><Frequency dt:dt=""r8"">3221757</Frequency><Timestamp dt:dt=""r8"">27692556517</Timestamp><Current dt:dt=""r8"">0</Current><DateUtc dt:dt=""string"">2023-11-16T15:59:42Z</DateUtc></FrequencyChange></FrequencyChanges></Clock>\n";TMS_Ibrahim-60-3;60.015;1.0.0.561;1;v;1923385786;2.0.10.356;2.0.10.242;11-16-2023;16/11/2023 15:59;16:59:43;2.0.10.147;0;;-999999;10;28457;0;1;1782;30239;1;1;1;2;1;2;1;BlockProcFischi;BlockList;1;225;0;;-999999;6;32124;0;1;1442;33566;1;1;1;1;ProcFischi1;ListBlockFischi;15;1;2;0;0;5;Pr3_B;250;1;op;5;2;2;1;15;1;0;TrialProc;1436;729;Pr3_B;303;2033;1729;ListFischi1;0;;0;212;135977;18;15;2060;138037;524;1;2060;1;604;579;1536;1;1
TMS_Ibrahim;60;3;"<?xml version=""1.0""?>\n<Clock xmlns:dt=""urn:schemas-microsoft-com:datatypes""><Description dt:dt=""string"">E-Prime Primary Realtime Clock</Description><StartTime><Timestamp dt:dt=""int"">0</Timestamp><DateUtc dt:dt=""string"">2023-11-16T15:59:42Z</DateUtc></StartTime><FrequencyChanges><FrequencyChange><Frequency dt:dt=""r8"">3221757</Frequency><Timestamp dt:dt=""r8"">27692556517</Timestamp><Current dt:dt=""r8"">0</Current><DateUtc dt:dt=""string"">2023-11-16T15:59:42Z</DateUtc></FrequencyChange></FrequencyChanges></Clock>\n";TMS_Ibrahim-60-3;60.015;1.0.0.561;1;v;1923385786;2.0.10.356;2.0.10.242;11-16-2023;16/11/2023 15:59;16:59:43;2.0.10.147;0;;-999999;10;28457;0;1;1782;30239;1;1;1;2;1;2;1;BlockProcFischi;BlockList;1;225;0;;-999999;6;32124;0;1;1442;33566;1;1;1;1;ProcFischi1;ListBlockFischi;16;1;1;0;0;3;Po8_B;150;2;op;3;2;37;1;16;2;0;TrialProc;1546;1252;Po8_B;241;1828;1587;ListFischi1;0;;0;205;143417;9;13;1852;145269;604;1;1852;1;786;528;1248;1;1
TMS_Ibrahim;60;3;"<?xml version=""1.0""?>\n<Clock xmlns:dt=""urn:schemas-microsoft-com:datatypes""><Description dt:dt=""string"">E-Prime Primary Realtime Clock</Description><StartTime><Timestamp dt:dt=""int"">0</Timestamp><DateUtc dt:dt=""string"">2023-11-16T15:59:42Z</DateUtc></StartTime><FrequencyChanges><FrequencyChange><Frequency dt:dt=""r8"">3221757</Frequency><Timestamp dt:dt=""r8"">27692556517</Timestamp><Current dt:dt=""r8"">0</Current><DateUtc dt:dt=""string"">2023-11-16T15:59:42Z</DateUtc></FrequencyChange></FrequencyChanges></Clock>\n";TMS_Ibrahim-60-3;60.015;1.0.0.561;1;v;1923385786;2.0.10.356;2.0.10.242;11-16-2023;16/11/2023 15:59;16:59:43;2.0.10.147;0;;-999999;10;28457;0;1;1782;30239;1;1;1;2;1;2;1;BlockProcFischi;BlockList;1;225;0;;-999999;6;32124;0;1;1442;33566;1;1;1;1;ProcFischi1;ListBlockFischi;17;1;2;0;1;5;Pr4_B;250;1;op;5;2;13;1;17;1;0;TrialProc;1369;697;Pr4_B;560;1824;1264;ListFischi1;0;;0;212;150288;20;15;1845;152133;565;1;1845;1;901;237;1280;1;1
TMS_Ibrahim;60;3;"<?xml version=""1.0""?>\n<Clock xmlns:dt=""urn:schemas-microsoft-com:datatypes""><Description dt:dt=""string"">E-Prime Primary Realtime Clock</Description><StartTime><Timestamp dt:dt=""int"">0</Timestamp><DateUtc dt:dt=""string"">2023-11-16T15:59:42Z</DateUtc></StartTime><FrequencyChanges><FrequencyChange><Frequency dt:dt=""r8"">3221757</Frequency><Timestamp dt:dt=""r8"">27692556517</Timestamp><Current dt:dt=""r8"">0</Current><DateUtc dt:dt=""string"">2023-11-16T15:59:42Z</DateUtc></FrequencyChange></FrequencyChanges></Clock>\n";TMS_Ibrahim-60-3;60.015;1.0.0.561;1;v;1923385786;2.0.10.356;2.0.10.242;11-16-2023;16/11/2023 15:59;16:59:43;2.0.10.147;0;;-999999;10;28457;0;1;1782;30239;1;1;1;2;1;2;1;BlockProcFischi;BlockList;1;225;0;;-999999;6;32124;0;1;1442;33566;1;1;1;1;ProcFischi1;ListBlockFischi;18;1;2;0;2;5;Pr4_B;250;1;op;5;2;3;1;18;1;0;TrialProc;1106;696;Pr4_B;365;1627;1262;ListFischi1;0;;1;205;157154;19;15;1651;158805;531;1;1651;1;868;478;1120;1;1
TMS_Ibrahim;60;3;"<?xml version=""1.0""?>\n<Clock xmlns:dt=""urn:schemas-microsoft-com:datatypes""><Description dt:dt=""string"">E-Prime Primary Realtime Clock</Description><StartTime><Timestamp dt:dt=""int"">0</Timestamp><DateUtc dt:dt=""string"">2023-11-16T15:59:42Z</DateUtc></StartTime><FrequencyChanges><FrequencyChange><Frequency dt:dt=""r8"">3221757</Frequency><Timestamp dt:dt=""r8"">27692556517</Timestamp><Current dt:dt=""r8"">0</Current><DateUtc dt:dt=""string"">2023-11-16T15:59:42Z</DateUtc></FrequencyChange></FrequencyChanges></Clock>\n";TMS_Ibrahim-60-3;60.015;1.0.0.561;1;v;1923385786;2.0.10.356;2.0.10.242;11-16-2023;16/11/2023 15:59;16:59:43;2.0.10.147;0;;-999999;10;28457;0;1;1782;30239;1;1;1;2;1;2;1;BlockProcFischi;BlockList;1;225;0;;-999999;6;32124;0;1;1442;33566;1;1;1;1;ProcFischi1;ListBlockFischi;19;1;2;0;0;5;Pr8_B;275;1;op;5;2;10;1;19;1;0;TrialProc;1376;733;Pr8_B;277;2043;1766;ListFischi1;0;;0;211;163865;23;15;2076;165941;732;1;2076;1;742;543;1344;1;1
TMS_Ibrahim;60;3;"<?xml version=""1.0""?>\n<Clock xmlns:dt=""urn:schemas-microsoft-com:datatypes""><Description dt:dt=""string"">E-Prime Primary Realtime Clock</Description><StartTime><Timestamp dt:dt=""int"">0</Timestamp><DateUtc dt:dt=""string"">2023-11-16T15:59:42Z</DateUtc></StartTime><FrequencyChanges><FrequencyChange><Frequency dt:dt=""r8"">3221757</Frequency><Timestamp dt:dt=""r8"">27692556517</Timestamp><Current dt:dt=""r8"">0</Current><DateUtc dt:dt=""string"">2023-11-16T15:59:42Z</DateUtc></FrequencyChange></FrequencyChanges></Clock>\n";TMS_Ibrahim-60-3;60.015;1.0.0.561;1;v;1923385786;2.0.10.356;2.0.10.242;11-16-2023;16/11/2023 15:59;16:59:43;2.0.10.147;0;;-999999;10;28457;0;1;1782;30239;1;1;1;2;1;2;1;BlockProcFischi;BlockList;1;225;0;;-999999;6;32124;0;1;1442;33566;1;1;1;1;ProcFischi1;ListBlockFischi;20;1;1;0;1;3;Po4_B;150;2;op;3;2;35;1;20;2;0;TrialProc;1144;1360;Po4_B;62;1664;1726;ListFischi1;0;;0;208;171037;16;133;1879;172916;696;1;1687;1;433;513;991;1;1
TMS_Ibrahim;60;3;"<?xml version=""1.0""?>\n<Clock xmlns:dt=""urn:schemas-microsoft-com:datatypes""><Description dt:dt=""string"">E-Prime Primary Realtime Clock</Description><StartTime><Timestamp dt:dt=""int"">0</Timestamp><DateUtc dt:dt=""string"">2023-11-16T15:59:42Z</DateUtc></StartTime><FrequencyChanges><FrequencyChange><Frequency dt:dt=""r8"">3221757</Frequency><Timestamp dt:dt=""r8"">27692556517</Timestamp><Current dt:dt=""r8"">0</Current><DateUtc dt:dt=""string"">2023-11-16T15:59:42Z</DateUtc></FrequencyChange></FrequencyChanges></Clock>\n";TMS_Ibrahim-60-3;60.015;1.0.0.561;1;v;1923385786;2.0.10.356;2.0.10.242;11-16-2023;16/11/2023 15:59;16:59:43;2.0.10.147;0;;-999999;10;28457;0;1;1782;30239;1;1;1;2;1;2;1;BlockProcFischi;BlockList;1;225;0;;-999999;6;32124;0;1;1442;33566;1;1;1;1;ProcFischi1;ListBlockFischi;21;1;2;0;0;5;Pr2_B;275;1;op;5;2;1;1;21;1;0;TrialProc;1131;731;Pr2_B;182;1448;1265;ListFischi1;0;;0;208;178263;22;15;1469;179732;381;1;1469;1;612;239;1088;1;1
TMS_Ibrahim;60;3;"<?xml version=""1.0""?>\n<Clock xmlns:dt=""urn:schemas-microsoft-com:datatypes""><Description dt:dt=""string"">E-Prime Primary Realtime Clock</Description><StartTime><Timestamp dt:dt=""int"">0</Timestamp><DateUtc dt:dt=""string"">2023-11-16T15:59:42Z</DateUtc></StartTime><FrequencyChanges><FrequencyChange><Frequency dt:dt=""r8"">3221757</Frequency><Timestamp dt:dt=""r8"">27692556517</Timestamp><Current dt:dt=""r8"">0</Current><DateUtc dt:dt=""string"">2023-11-16T15:59:42Z</DateUtc></FrequencyChange></FrequencyChanges></Clock>\n";TMS_Ibrahim-60-3;60.015;1.0.0.561;1;v;1923385786;2.0.10.356;2.0.10.242;11-16-2023;16/11/2023 15:59;16:59:43;2.0.10.147;0;;-999999;10;28457;0;1;1782;30239;1;1;1;2;1;2;1;BlockProcFischi;BlockList;1;225;0;;-999999;6;32124;0;1;1442;33566;1;1;1;1;ProcFischi1;ListBlockFischi;22;1;1;0;0;5;Po2_B;125;4;ug;5;2;54;1;22;4;1;TrialProc;1312;1594;Po2_B;26;1853;1827;ListFischi1;0;;1;209;185382;17;15;1886;187268;638;1;1886;1;459;366;1248;1;1
TMS_Ibrahim;60;3;"<?xml version=""1.0""?>\n<Clock xmlns:dt=""urn:schemas-microsoft-com:datatypes""><Description dt:dt=""string"">E-Prime Primary Realtime Clock</Description><StartTime><Timestamp dt:dt=""int"">0</Timestamp><DateUtc dt:dt=""string"">2023-11-16T15:59:42Z</DateUtc></StartTime><FrequencyChanges><FrequencyChange><Frequency dt:dt=""r8"">3221757</Frequency><Timestamp dt:dt=""r8"">27692556517</Timestamp><Current dt:dt=""r8"">0</Current><DateUtc dt:dt=""string"">2023-11-16T15:59:42Z</DateUtc></FrequencyChange></FrequencyChanges></Clock>\n";TMS_Ibrahim-60-3;60.015;1.0.0.561;1;v;1923385786;2.0.10.356;2.0.10.242;11-16-2023;16/11/2023 15:59;16:59:43;2.0.10.147;0;;-999999;10;28457;0;1;1782;30239;1;1;1;2;1;2;1;BlockProcFischi;BlockList;1;225;0;;-999999;6;32124;0;1;1442;33566;1;1;1;1;ProcFischi1;ListBlockFischi;23;1;2;0;0;5;Pr5_B;250;1;op;5;2;9;1;23;1;0;TrialProc;996;702;Pr5_B;165;1466;1302;ListFischi1;0;;0;212;192622;26;15;1494;194116;470;1;1494;1;680;497;1024;1;1
TMS_Ibrahim;60;3;"<?xml version=""1.0""?>\n<Clock xmlns:dt=""urn:schemas-microsoft-com:datatypes""><Description dt:dt=""string"">E-Prime Primary Realtime Clock</Description><StartTime><Timestamp dt:dt=""int"">0</Timestamp><DateUtc dt:dt=""string"">2023-11-16T15:59:42Z</DateUtc></StartTime><FrequencyChanges><FrequencyChange><Frequency dt:dt=""r8"">3221757</Frequency><Timestamp dt:dt=""r8"">27692556517</Timestamp><Current dt:dt=""r8"">0</Current><DateUtc dt:dt=""string"">2023-11-16T15:59:42Z</DateUtc></FrequencyChange></FrequencyChanges></Clock>\n";TMS_Ibrahim-60-3;60.015;1.0.0.561;1;v;1923385786;2.0.10.356;2.0.10.242;11-16-2023;16/11/2023 15:59;16:59:43;2.0.10.147;0;;-999999;10;28457;0;1;1782;30239;1;1;1;2;1;2;1;BlockProcFischi;BlockList;1;225;0;;-999999;6;32124;0;1;1442;33566;1;1;1;1;ProcFischi1;ListBlockFischi;24;1;1;0;0;3;Po2_B;125;2;op;3;2;43;1;24;2;0;TrialProc;1806;1585;Po2_B;73;1744;1818;ListFischi1;0;;1;203;199888;8;133;2148;202036;388;1;1764;1;498;594;1376;1;1
TMS_Ibrahim;60;3;"<?xml version=""1.0""?>\n<Clock xmlns:dt=""urn:schemas-microsoft-com:datatypes""><Description dt:dt=""string"">E-Prime Primary Realtime Clock</Description><StartTime><Timestamp dt:dt=""int"">0</Timestamp><DateUtc dt:dt=""string"">2023-11-16T15:59:42Z</DateUtc></StartTime><FrequencyChanges><FrequencyChange><Frequency dt:dt=""r8"">3221757</Frequency><Timestamp dt:dt=""r8"">27692556517</Timestamp><Current dt:dt=""r8"">0</Current><DateUtc dt:dt=""string"">2023-11-16T15:59:42Z</DateUtc></FrequencyChange></FrequencyChanges></Clock>\n";TMS_Ibrahim-60-3;60.015;1.0.0.561;1;v;1923385786;2.0.10.356;2.0.10.242;11-16-2023;16/11/2023 15:59;16:59:43;2.0.10.147;0;;-999999;10;28457;0;1;1782;30239;1;1;1;2;1;2;1;BlockProcFischi;BlockList;1;225;0;;-999999;6;32124;0;1;1442;33566;1;1;1;1;ProcFischi1;ListBlockFischi;25;1;2;0;0;5;Pr3_B;225;1;op;5;2;7;1;25;1;0;TrialProc;1083;727;Pr3_B;24;1751;1726;ListFischi1;0;;1;210;206676;18;15;1776;208452;464;1;1776;1;512;542;1312;1;1
TMS_Ibrahim;60;3;"<?xml version=""1.0""?>\n<Clock xmlns:dt=""urn:schemas-microsoft-com:datatypes""><Description dt:dt=""string"">E-Prime Primary Realtime Clock</Description><StartTime><Timestamp dt:dt=""int"">0</Timestamp><DateUtc dt:dt=""string"">2023-11-16T15:59:42Z</DateUtc></StartTime><FrequencyChanges><FrequencyChange><Frequency dt:dt=""r8"">3221757</Frequency><Timestamp dt:dt=""r8"">27692556517</Timestamp><Current dt:dt=""r8"">0</Current><DateUtc dt:dt=""string"">2023-11-16T15:59:42Z</DateUtc></FrequencyChange></FrequencyChanges></Clock>\n";TMS_Ibrahim-60-3;60.015;1.0.0.561;1;v;1923385786;2.0.10.356;2.0.10.242;11-16-2023;16/11/2023 15:59;16:59:43;2.0.10.147;0;;-999999;10;28457;0;1;1782;30239;1;1;1;2;1;2;1;BlockProcFischi;BlockList;1;225;0;;-999999;6;32124;0;1;1442;33566;1;1;1;1;ProcFischi1;ListBlockFischi;26;1;1;0;0;3;Po5_B;100;2;op;3;2;36;1;26;2;0;TrialProc;1020;995;Po5_B;83;1578;1495;ListFischi1;0;;1;207;214057;19;133;1803;215860;491;1;1611;1;604;372;1120;1;1
TMS_Ibrahim;60;3;"<?xml version=""1.0""?>\n<Clock xmlns:dt=""urn:schemas-microsoft-com:datatypes""><Description dt:dt=""string"">E-Prime Primary Realtime Clock</Description><StartTime><Timestamp dt:dt=""int"">0</Timestamp><DateUtc dt:dt=""string"">2023-11-16T15:59:42Z</DateUtc></StartTime><FrequencyChanges><FrequencyChange><Frequency dt:dt=""r8"">3221757</Frequency><Timestamp dt:dt=""r8"">27692556517</Timestamp><Current dt:dt=""r8"">0</Current><DateUtc dt:dt=""string"">2023-11-16T15:59:42Z</DateUtc></FrequencyChange></FrequencyChanges></Clock>\n";TMS_Ibrahim-60-3;60.015;1.0.0.561;1;v;1923385786;2.0.10.356;2.0.10.242;11-16-2023;16/11/2023 15:59;16:59:43;2.0.10.147;0;;-999999;10;28457;0;1;1782;30239;1;1;1;2;1;2;1;BlockProcFischi;BlockList;1;225;0;;-999999;6;32124;0;1;1442;33566;1;1;1;1;ProcFischi1;ListBlockFischi;27;1;1;0;0;3;Po2_B;100;2;op;3;2;38;1;27;2;0;TrialProc;1071;1601;Po2_B;108;1727;1834;ListFischi1;0;;1;206;221082;25;13;1754;222836;346;1;1754;1;383;382;1408;1;1
TMS_Ibrahim;60;3;"<?xml version=""1.0""?>\n<Clock xmlns:dt=""urn:schemas-microsoft-com:datatypes""><Description dt:dt=""string"">E-Prime Primary Realtime Clock</Description><StartTime><Timestamp dt:dt=""int"">0</Timestamp><DateUtc dt:dt=""string"">2023-11-16T15:59:42Z</DateUtc></StartTime><FrequencyChanges><FrequencyChange><Frequency dt:dt=""r8"">3221757</Frequency><Timestamp dt:dt=""r8"">27692556517</Timestamp><Current dt:dt=""r8"">0</Current><DateUtc dt:dt=""string"">2023-11-16T15:59:42Z</DateUtc></FrequencyChange></FrequencyChanges></Clock>\n";TMS_Ibrahim-60-3;60.015;1.0.0.561;1;v;1923385786;2.0.10.356;2.0.10.242;11-16-2023;16/11/2023 15:59;16:59:43;2.0.10.147;0;;-999999;10;28457;0;1;1782;30239;1;1;1;2;1;2;1;BlockProcFischi;BlockList;1;225;0;;-999999;6;32124;0;1;1442;33566;1;1;1;1;ProcFischi1;ListBlockFischi;28;1;1;0;0;3;Po4_B;100;2;op;3;2;40;1;28;2;0;TrialProc;1434;1365;Po4_B;97;1634;1731;ListFischi1;0;;0;214;228334;21;13;1654;229988;582;1;1654;1;611;523;1072;1;1
TMS_Ibrahim;60;3;"<?xml version=""1.0""?>\n<Clock xmlns:dt=""urn:schemas-microsoft-com:datatypes""><Description dt:dt=""string"">E-Prime Primary Realtime Clock</Description><StartTime><Timestamp dt:dt=""int"">0</Timestamp><DateUtc dt:dt=""string"">2023-11-16T15:59:42Z</DateUtc></StartTime><FrequencyChanges><FrequencyChange><Frequency dt:dt=""r8"">3221757</Frequency><Timestamp dt:dt=""r8"">27692556517</Timestamp><Current dt:dt=""r8"">0</Current><DateUtc dt:dt=""string"">2023-11-16T15:59:42Z</DateUtc></FrequencyChange></FrequencyChanges></Clock>\n";TMS_Ibrahim-60-3;60.015;1.0.0.561;1;v;1923385786;2.0.10.356;2.0.10.242;11-16-2023;16/11/2023 15:59;16:59:43;2.0.10.147;0;;-999999;10;28457;0;1;1782;30239;1;1;1;2;1;2;1;BlockProcFischi;BlockList;1;225;0;;-999999;6;32124;0;1;1442;33566;1;1;1;1;ProcFischi1;ListBlockFischi;29;0;2;1;2;3;Prmod_B;;3;ug;5;2;31;1;29;3;1;TrialProc;2222;1322;Prmod_B;74;1581;1655;ListFischi1;0;;0;206;236025;12;153;1995;238020;459;1;1611;1;724;478;1152;1;0
TMS_Ibrahim;60;3;"<?xml version=""1.0""?>\n<Clock xmlns:dt=""urn:schemas-microsoft-com:datatypes""><Description dt:dt=""string"">E-Prime Primary Realtime Clock</Description><StartTime><Timestamp dt:dt=""int"">0</Timestamp><DateUtc dt:dt=""string"">2023-11-16T15:59:42Z</DateUtc></StartTime><FrequencyChanges><FrequencyChange><Frequency dt:dt=""r8"">3221757</Frequency><Timestamp dt:dt=""r8"">27692556517</Timestamp><Current dt:dt=""r8"">0</Current><DateUtc dt:dt=""string"">2023-11-16T15:59:42Z</DateUtc></FrequencyChange></FrequencyChanges></Clock>\n";TMS_Ibrahim-60-3;60.015;1.0.0.561;1;v;1923385786;2.0.10.356;2.0.10.242;11-16-2023;16/11/2023 15:59;16:59:43;2.0.10.147;0;;-999999;10;28457;0;1;1782;30239;1;1;1;2;1;2;1;BlockProcFischi;BlockList;1;225;0;;-999999;6;32124;0;1;1442;33566;1;1;1;1;ProcFischi1;ListBlockFischi;30;1;2;0;2;3;Pr4_B;250;3;ug;3;2;19;1;30;3;1;TrialProc;1103;685;Pr4_B;195;1448;1252;ListFischi1;0;;0;207;243342;10;13;1478;244820;454;1;1478;1;633;234;1024;1;1
TMS_Ibrahim;60;3;"<?xml version=""1.0""?>\n<Clock xmlns:dt=""urn:schemas-microsoft-com:datatypes""><Description dt:dt=""string"">E-Prime Primary Realtime Clock</Description><StartTime><Timestamp dt:dt=""int"">0</Timestamp><DateUtc dt:dt=""string"">2023-11-16T15:59:42Z</DateUtc></StartTime><FrequencyChanges><FrequencyChange><Frequency dt:dt=""r8"">3221757</Frequency><Timestamp dt:dt=""r8"">27692556517</Timestamp><Current dt:dt=""r8"">0</Current><DateUtc dt:dt=""string"">2023-11-16T15:59:42Z</DateUtc></FrequencyChange></FrequencyChanges></Clock>\n";TMS_Ibrahim-60-3;60.015;1.0.0.561;1;v;1923385786;2.0.10.356;2.0.10.242;11-16-2023;16/11/2023 15:59;16:59:43;2.0.10.147;0;;-999999;10;28457;0;1;1782;30239;1;1;1;2;1;2;1;BlockProcFischi;BlockList;1;225;0;;-999999;6;32124;0;1;1442;33566;1;1;1;1;ProcFischi1;ListBlockFischi;31;1;2;0;0;5;Pr8_B;200;1;op;5;2;5;1;31;1;0;TrialProc;1201;723;Pr8_B;253;2010;1757;ListFischi1;0;;1;205;250385;15;1155;2691;253076;419;1;2035;1;677;539;1616;1;1
TMS_Ibrahim;60;3;"<?xml version=""1.0""?>\n<Clock xmlns:dt=""urn:schemas-microsoft-com:datatypes""><Description dt:dt=""string"">E-Prime Primary Realtime Clock</Description><StartTime><Timestamp dt:dt=""int"">0</Timestamp><DateUtc dt:dt=""string"">2023-11-16T15:59:42Z</DateUtc></StartTime><FrequencyChanges><FrequencyChange><Frequency dt:dt=""r8"">3221757</Frequency><Timestamp dt:dt=""r8"">27692556517</Timestamp><Current dt:dt=""r8"">0</Current><DateUtc dt:dt=""string"">2023-11-16T15:59:42Z</DateUtc></FrequencyChange></FrequencyChanges></Clock>\n";TMS_Ibrahim-60-3;60.015;1.0.0.561;1;v;1923385786;2.0.10.356;2.0.10.242;11-16-2023;16/11/2023 15:59;16:59:43;2.0.10.147;0;;-999999;10;28457;0;1;1782;30239;1;1;1;2;1;2;1;BlockProcFischi;BlockList;1;225;0;;-999999;6;32124;0;1;1442;33566;1;1;1;1;ProcFischi1;ListBlockFischi;32;1;2;0;0;3;Pr5_B;225;3;ug;3;2;30;1;32;3;1;TrialProc;1192;687;Pr5_B;355;1643;1287;ListFischi1;0;;1;204;257022;10;13;1670;258692;550;1;1670;1;791;296;1120;1;1
TMS_Ibrahim;60;3;"<?xml version=""1.0""?>\n<Clock xmlns:dt=""urn:schemas-microsoft-com:datatypes""><Description dt:dt=""string"">E-Prime Primary Realtime Clock</Description><StartTime><Timestamp dt:dt=""int"">0</Timestamp><DateUtc dt:dt=""string"">2023-11-16T15:59:42Z</DateUtc></StartTime><FrequencyChanges><FrequencyChange><Frequency dt:dt=""r8"">3221757</Frequency><Timestamp dt:dt=""r8"">27692556517</Timestamp><Current dt:dt=""r8"">0</Current><DateUtc dt:dt=""string"">2023-11-16T15:59:42Z</DateUtc></FrequencyChange></FrequencyChanges></Clock>\n";TMS_Ibrahim-60-3;60.015;1.0.0.561;1;v;1923385786;2.0.10.356;2.0.10.242;11-16-2023;16/11/2023 15:59;16:59:43;2.0.10.147;0;;-999999;10;28457;0;1;1782;30239;1;1;1;2;1;2;1;BlockProcFischi;BlockList;1;225;0;;-999999;6;32124;0;1;1442;33566;1;1;1;1;ProcFischi1;ListBlockFischi;33;1;2;1;1;5;Prmod_B;200;1;op;5;2;16;1;33;1;0;TrialProc;1478;1332;Prmod_B;206;1872;1666;ListFischi1;0;;0;205;264091;22;15;1897;265988;521;1;1897;1;606;382;1376;1;1
TMS_Ibrahim;60;3;"<?xml version=""1.0""?>\n<Clock xmlns:dt=""urn:schemas-microsoft-com:datatypes""><Description dt:dt=""string"">E-Prime Primary Realtime Clock</Description><StartTime><Timestamp dt:dt=""int"">0</Timestamp><DateUtc dt:dt=""string"">2023-11-16T15:59:42Z</DateUtc></StartTime><FrequencyChanges><FrequencyChange><Frequency dt:dt=""r8"">3221757</Frequency><Timestamp dt:dt=""r8"">27692556517</Timestamp><Current dt:dt=""r8"">0</Current><DateUtc dt:dt=""string"">2023-11-16T15:59:42Z</DateUtc></FrequencyChange></FrequencyChanges></Clock>\n";TMS_Ibrahim-60-3;60.015;1.0.0.561;1;v;1923385786;2.0.10.356;2.0.10.242;11-16-2023;16/11/2023 15:59;16:59:43;2.0.10.147;0;;-999999;10;28457;0;1;1782;30239;1;1;1;2;1;2;1;BlockProcFischi;BlockList;1;225;0;;-999999;6;32124;0;1;1442;33566;1;1;1;1;ProcFischi1;ListBlockFischi;34;1;2;0;1;5;Pr3_B;200;1;op;5;2;12;1;34;1;0;TrialProc;1294;717;Pr3_B;212;1929;1717;ListFischi1;0;;1;203;271137;8;155;2242;273379;690;1;1954;1;564;276;1264;1;1
TMS_Ibrahim;60;3;"<?xml version=""1.0""?>\n<Clock xmlns:dt=""urn:schemas-microsoft-com:datatypes""><Description dt:dt=""string"">E-Prime Primary Realtime Clock</Description><StartTime><Timestamp dt:dt=""int"">0</Timestamp><DateUtc dt:dt=""string"">2023-11-16T15:59:42Z</DateUtc></StartTime><FrequencyChanges><FrequencyChange><Frequency dt:dt=""r8"">3221757</Frequency><Timestamp dt:dt=""r8"">27692556517</Timestamp><Current dt:dt=""r8"">0</Current><DateUtc dt:dt=""string"">2023-11-16T15:59:42Z</DateUtc></FrequencyChange></FrequencyChanges></Clock>\n";TMS_Ibrahim-60-3;60.015;1.0.0.561;1;v;1923385786;2.0.10.356;2.0.10.242;11-16-2023;16/11/2023 15:59;16:59:43;2.0.10.147;0;;-999999;10;28457;0;1;1782;30239;1;1;1;2;1;2;1;BlockProcFischi;BlockList;1;225;0;;-999999;6;32124;0;1;1442;33566;1;1;1;1;ProcFischi1;ListBlockFischi;35;1;1;0;0;5;Po3_B;100;4;ug;5;2;55;1;35;4;1;TrialProc;1380;1332;Po3_B;129;1728;1599;ListFischi1;0;;1;210;278005;21;15;1758;279763;526;1;1758;1;496;270;1232;1;1
TMS_Ibrahim;60;3;"<?xml version=""1.0""?>\n<Clock xmlns:dt=""urn:schemas-microsoft-com:datatypes""><Description dt:dt=""string"">E-Prime Primary Realtime Clock</Description><StartTime><Timestamp dt:dt=""int"">0</Timestamp><DateUtc dt:dt=""string"">2023-11-16T15:59:42Z</DateUtc></StartTime><FrequencyChanges><FrequencyChange><Frequency dt:dt=""r8"">3221757</Frequency><Timestamp dt:dt=""r8"">27692556517</Timestamp><Current dt:dt=""r8"">0</Current><DateUtc dt:dt=""string"">2023-11-16T15:59:42Z</DateUtc></FrequencyChange></FrequencyChanges></Clock>\n";TMS_Ibrahim-60-3;60.015;1.0.0.561;1;v;1923385786;2.0.10.356;2.0.10.242;11-16-2023;16/11/2023 15:59;16:59:43;2.0.10.147;0;;-999999;10;28457;0;1;1782;30239;1;1;1;2;1;2;1;BlockProcFischi;BlockList;1;225;0;;-999999;6;32124;0;1;1442;33566;1;1;1;1;ProcFischi1;ListBlockFischi;36;1;1;0;1;5;Po3_B;100;4;ug;5;2;50;1;36;4;1;TrialProc;3202;1328;Po3_B;180;1774;1594;ListFischi1;0;;0;209;285324;17;15;1799;287123;391;1;1799;1;477;322;1408;1;1
